{
  "resourceType": "Bundle",
  "id": "a8ca980c-72aa-11e7-8cf7-a6006ad3dba0",
  "meta": {
    "profile": [
      "https://fhir.nhs.uk/StructureDefinition/DCH-Bundle-1"
    ]
  },
  "type": "message",
  "entry": [
    {
      "fullUrl": "urn:uuid:a8ca9bb8-72aa-11e7-8cf7-a6006ad3dba0",
      "resource": {
        "resourceType": "MessageHeader",
        "id": "a8ca9bb8-72aa-11e7-8cf7-a6006ad3dba0",
        "meta": {
          "profile": [
            "https://fhir.nhs.uk/StructureDefinition/DCH-MessageHeader-1"
          ]
        },
        "extension": [
          {
            "url": "https://fhir.nhs.uk/StructureDefinition/Extension-DCH-MessageEventType-1",
            "valueCodeableConcept": {
              "coding": [
                {
                  "system": "https://fhir.nhs.uk/DCH-MessageEventType-1",
                  "code": "new",
                  "display": "New event message"
                }
              ]
            }
          }
        ],
        "timestamp": "2012-01-31T09:00:00+00:00",
        "event": {
          "system": "https://fhir.nhs.uk/DCH-ChildHealthEventType-1",
          "code": "CH015",
          "display": "Immunisation Administration"
        },
        "source": {
          "endpoint": "urn:nhs-uk:addressing:ods:RR8"
        },
        "responsible": {
          "reference": "urn:uuid:5ccb6bb7-a7f1-46cc-a5d3-135320765553",
          "display": "Leeds Teaching Hospitals"
        },
        "data": [
          {
            "reference": "urn:uuid:a8ca9fe6-72aa-11e7-8cf7-a6006ad3dba0"
          }
        ]
      }
    },
    {
      "fullUrl": "urn:uuid:5ccb6bb7-a7f1-46cc-a5d3-135320765553",
      "resource": {
        "resourceType": "Organization",
        "id": "5ccb6bb7-a7f1-46cc-a5d3-135320765553",
        "meta": {
          "profile": [
            "https://fhir.hl7.org.uk/StructureDefinition/CareConnect-DCH-Organization-1"
          ]
        },
        "identifier": [
          {
            "system": "https://fhir.nhs.uk/Id/ods-organization-code",
            "value": "RR8"
          }
        ],
        "name": "Leeds Teaching Hospitals NHS Trust"
      }
    },
    {
      "fullUrl": "urn:uuid:7368c5fe-bbb4-4e9c-a585-234e06b84e82",
      "resource": {
        "resourceType": "Patient",
        "id": "7368c5fe-bbb4-4e9c-a585-234e06b84e82",
        "meta": {
          "profile": [
            "https://fhir.nhs.uk/StructureDefinition/CareConnect-DCH-Patient-1"
          ]
        },
        "identifier": [
          {
            "extension": [
              {
                "url": "https://fhir.hl7.org.uk/StructureDefinition/Extension-CareConnect-NHSNumberVerificationStatus-1",
                "valueCodeableConcept": {
                  "coding": [
                    {
                      "system": "https://fhir.hl7.org.uk/CareConnect-NHSNumberVerificationStatus-1",
                      "code": "01",
                      "display": "Number present and verified"
                    }
                  ]
                }
              }
            ],
            "system": "https://fhir.nhs.uk/Id/nhs-number",
            "value": "5629874536"
          }
        ],
        "name": [
          {
            "use": "usual",
            "family": [
              "Saxton"
            ],
            "given": [
              "Sarah",
              "Marie"
            ]
          }
        ],
        "gender": "female",
        "birthDate": "2012-01-07",
        "_birthDate": {
          "extension": [
            {
              "url": "http://hl7.org/fhir/StructureDefinition/patient-birthTime",
              "valueDateTime": "2012-01-07T20:12:00+00:00"
            }
          ]
        }
      }
    },
    {
      "fullUrl": "urn:uuid:e9dbfa46-5bdc-11e7-907b-a6006ad3dba0",
      "resource": {
        "resourceType": "Immunization",
        "id": "e9dbfa46-5bdc-11e7-907b-a6006ad3dba0",
        "meta": {
          "profile": [
            "https://fhir.nhs.uk/StructureDefinition/CareConnect-DCH-Immunization-1"
          ]
        },
        "identifier": [
          {
            "system": "https://tools.ietf.org/html/rfc4122",
            "value": "e9dbfa46-5bdc-11e7-907b-a6006ad3dba0"
          }
        ],
        "status": "completed",
        "date": "2012-01-29",
        "vaccineCode": {
          "coding": [
            {
              "system": "http://snomed.info/sct",
              "code": "9316611000001101",
              "display": "BCG vaccine powder and solvent for suspension for injection vials (Statens Serum Institut) (product)"
            }
          ]
        },
        "patient": {
          "reference": "urn:uuid:7368c5fe-bbb4-4e9c-a585-234e06b84e82",
          "display": "SAXTON, Sarah Marie"
        },
        "wasNotGiven": false,
        "reported": false,
        "encounter": {
          "reference": "urn:uuid:a8ca9fe6-72aa-11e7-8cf7-a6006ad3dba0"
        },
        "manufacturer": {
          "reference": "urn:uuid:e9dc2412-5bdc-11e7-907b-a6006ad3dba0",
          "display": "Statens Serum Institut (SSI)"
        },
        "location": {
          "reference": "urn:uuid:e9dbf730-5bdc-11e7-907b-a6006ad3dba0",
          "display": "Wood Town GP Practice"
        },
        "lotNumber": "114022A",
        "site": {
          "coding": [
            {
              "system": "http://snomed.info/sct",
              "code": "123851003",
              "display": "Mouth"
            }
          ]
        },
        "route": {
          "coding": [
            {
              "system": "http://snomed.info/sct",
              "code": "26643006",
              "display": "Oral route"
            }
          ]
        },
        "doseQuantity": {
          "value": 0.05,
          "system": "http://unitsofmeasure.org",
          "code": "ml"
        },
        "vaccinationProtocol": [
          {
            "doseSequence": 1,
            "targetDisease": [
              {
                "coding": [
                  {
                    "system": "http://snomed.info/sct",
                    "code": "56717001",
                    "display": "Tuberculosis (disorder)"
                  }
                ]
              }
            ],
            "doseStatus": {
              "coding": [
                {
                  "system": "http://hl7.org/fhir/vaccination-protocol-dose-status",
                  "code": "count",
                  "display": "Counts"
                }
              ]
            }
          }
        ]
      }
    },
    {
      "fullUrl": "urn:uuid:a8ca9fe6-72aa-11e7-8cf7-a6006ad3dba0",
      "resource": {
        "resourceType": "Encounter",
        "id": "a8ca9fe6-72aa-11e7-8cf7-a6006ad3dba0",
        "meta": {
          "profile": [
            "https://fhir.nhs.uk/StructureDefinition/CareConnect-DCH-Encounter-1"
          ]
        },
        "identifier": [
          {
            "system": "https://tools.ietf.org/html/rfc4122",
            "value": "a8ca9fe6-72aa-11e7-8cf7-a6006ad3dba0"
          }
        ],
        "status": "finished",
        "type": [
          {
            "coding": [
              {
                "system": "https://fhir.nhs.uk/DCH-ChildHealthEventType-1",
                "code": "Immunisation : Immunisation Administration",
                "display": "Immunisation : Immunisation Administration"
              }
            ]
          }
        ],
        "patient": {
          "reference": "urn:uuid:7368c5fe-bbb4-4e9c-a585-234e06b84e82",
          "display": "SAXTON, Sarah Marie"
        },
        "participant": [
          {
            "type": [
              {
                "coding": [
                  {
                    "system": "http://hl7.org/fhir/v3/ParticipationType",
                    "code": "PPRF",
                    "display": "primary performer"
                  }
                ]
              }
            ],
            "individual": {
              "reference": "urn:uuid:e9dbf8e8-5bdc-11e7-907b-a6006ad3dba0",
              "display": "JONES, Bob (Dr.)"
            }
          }
        ],
        "period": {
          "start": "2012-01-29T09:00:00"
        },
        "location": [
          {
            "location": {
              "reference": "urn:uuid:e9dbf730-5bdc-11e7-907b-a6006ad3dba0",
              "display": "Wood Town GP Practice"
            }
          }
        ],
        "serviceProvider": {
          "reference": "urn:uuid:5ccb6bb7-a7f1-46cc-a5d3-135320765553",
          "display": "Leeds Teaching Hospitals NHS Trust"
        }
      }
    },
    {
      "fullUrl": "urn:uuid:e9dc1bc0-5bdc-11e7-907b-a6006ad3dba0",
      "resource": {
        "resourceType": "Procedure",
        "id": "e9dc1bc0-5bdc-11e7-907b-a6006ad3dba0",
        "meta": {
          "profile": [
            "https://fhir.nhs.uk/StructureDefinition/CareConnect-DCH-Procedure-1"
          ]
        },
        "identifier": [
          {
            "system": "https://tools.ietf.org/html/rfc4122",
            "value": "e9dc1bc0-5bdc-11e7-907b-a6006ad3dba0"
          }
        ],
        "subject": {
          "reference": "urn:uuid:7368c5fe-bbb4-4e9c-a585-234e06b84e82",
          "display": "SAXTON, Sarah Marie"
        },
        "status": "completed",
        "code": {
          "coding": [
            {
              "system": "http://snomed.info/sct",
              "code": "42284007",
              "display": "Bacillus Calmette-Guerin vaccination (procedure)"
            }
          ]
        },
        "performedDateTime": "2012-01-29T09:00:00",
        "encounter": {
          "reference": "urn:uuid:a8ca9fe6-72aa-11e7-8cf7-a6006ad3dba0"
        }
      }
    },
    {
      "fullUrl": "urn:uuid:e9dbf8e8-5bdc-11e7-907b-a6006ad3dba0",
      "resource": {
        "resourceType": "Practitioner",
        "id": "e9dbf8e8-5bdc-11e7-907b-a6006ad3dba0",
        "meta": {
          "profile": [
            "https://fhir.hl7.org.uk/StructureDefinition/CareConnect-DCH-Practitioner-1"
          ]
        },
        "identifier": [
          {
            "system": "https://fhir.nhs.net/Id/sds-role-profile-id",
            "value": "PT2468"
          }
        ],
        "name": {
          "family": [
            "Jones"
          ],
          "given": [
            "Bob"
          ],
          "prefix": [
            "Dr."
          ]
        },
        "practitionerRole": [
          {
            "managingOrganization": {
              "reference": "urn:uuid:5ccb6bb7-a7f1-46cc-a5d3-135320765553",
              "display": "Leeds Teaching Hospitals NHS Trust"
            },
            "role": {
              "coding": [
                {
                  "system": "http://fhir.nhs.net/ValueSet/sds-job-role-name-1",
                  "code": "R8000",
                  "display": "General Medical Practitioner"
                }
              ]
            }
          }
        ]
      }
    },
    {
      "fullUrl": "urn:uuid:e9dbf730-5bdc-11e7-907b-a6006ad3dba0",
      "resource": {
        "resourceType": "Location",
        "id": "e9dbf730-5bdc-11e7-907b-a6006ad3dba0",
        "meta": {
          "profile": [
            "https://fhir.hl7.org.uk/StructureDefinition/CareConnect-DCH-Location-1"
          ]
        },
        "identifier": [
          {
            "system": "https://fhir.nhs.uk/Id/ods-site-code",
            "value": "B86022"
          }
        ],
        "name": "Wood Town GP practice",
        "managingOrganization": {
          "reference": "urn:uuid:5ccb6bb7-a7f1-46cc-a5d3-135320765553",
          "display": "Leeds Teaching Hospitals"
        }
      }
    },
    {
      "fullUrl": "urn:uuid:e9dc2412-5bdc-11e7-907b-a6006ad3dba0",
      "resource": {
        "resourceType": "Organization",
        "id": "e9dc2412-5bdc-11e7-907b-a6006ad3dba0",
        "meta": {
          "profile": [
            "https://fhir.hl7.org.uk/StructureDefinition/CareConnect-DCH-Organization-1"
          ]
        },
        "name": "Statens Serum Institut (SSI)"
      }
    }
  ]
}