<Bundle xmlns="http://hl7.org/fhir"><id value="a8ca980c-72aa-11e7-8cf7-a6006ad3dba0" /><meta><profile value="https://fhir.nhs.uk/StructureDefinition/DCH-Bundle-1" /></meta><type value="message" /><entry><fullUrl value="urn:uuid:a8ca9bb8-72aa-11e7-8cf7-a6006ad3dba0" /><resource><MessageHeader><id value="a8ca9bb8-72aa-11e7-8cf7-a6006ad3dba0" /><meta><profile value="https://fhir.nhs.uk/StructureDefinition/DCH-MessageHeader-1" /></meta><extension url="https://fhir.nhs.uk/StructureDefinition/Extension-DCH-MessageEventType-1"><valueCodeableConcept><coding><system value="https://fhir.nhs.uk/DCH-MessageEventType-1" /><code value="new" /><display value="New event message" /></coding></valueCodeableConcept></extension><timestamp value="2012-01-31T09:00:00+00:00" /><event><system value="https://fhir.nhs.uk/DCH-ChildHealthEventType-1" /><code value="CH015" /><display value="Immunisation Administration" /></event><source><endpoint value="urn:nhs-uk:addressing:ods:RR8" /></source><responsible><reference value="urn:uuid:5ccb6bb7-a7f1-46cc-a5d3-135320765553" /><display value="Leeds Teaching Hospitals" /></responsible><data><reference value="urn:uuid:a8ca9fe6-72aa-11e7-8cf7-a6006ad3dba0" /></data></MessageHeader></resource></entry><entry><fullUrl value="urn:uuid:5ccb6bb7-a7f1-46cc-a5d3-135320765553" /><resource><Organization><id value="5ccb6bb7-a7f1-46cc-a5d3-135320765553" /><meta><profile value="https://fhir.hl7.org.uk/StructureDefinition/CareConnect-DCH-Organization-1" /></meta><identifier><system value="https://fhir.nhs.uk/Id/ods-organization-code" /><value value="RR8" /></identifier><name value="Leeds Teaching Hospitals NHS Trust" /></Organization></resource></entry><entry><fullUrl value="urn:uuid:7368c5fe-bbb4-4e9c-a585-234e06b84e82" /><resource><Patient><id value="7368c5fe-bbb4-4e9c-a585-234e06b84e82" /><meta><profile value="https://fhir.nhs.uk/StructureDefinition/CareConnect-DCH-Patient-1" /></meta><identifier><extension url="https://fhir.hl7.org.uk/StructureDefinition/Extension-CareConnect-NHSNumberVerificationStatus-1"><valueCodeableConcept><coding><system value="https://fhir.hl7.org.uk/CareConnect-NHSNumberVerificationStatus-1" /><code value="01" /><display value="Number present and verified" /></coding></valueCodeableConcept></extension><system value="https://fhir.nhs.uk/Id/nhs-number" /><value value="5629874536" /></identifier><name><use value="usual" /><family value="Saxton" /><given value="Sarah" /><given value="Marie" /></name><gender value="female" /><birthDate value="2012-01-07"><extension url="http://hl7.org/fhir/StructureDefinition/patient-birthTime"><valueDateTime value="2012-01-07T20:12:00+00:00" /></extension></birthDate></Patient></resource></entry><entry><fullUrl value="urn:uuid:e9dbfa46-5bdc-11e7-907b-a6006ad3dba0" /><resource><Immunization><id value="e9dbfa46-5bdc-11e7-907b-a6006ad3dba0" /><meta><profile value="https://fhir.nhs.uk/StructureDefinition/CareConnect-DCH-Immunization-1" /></meta><identifier><system value="https://tools.ietf.org/html/rfc4122" /><value value="e9dbfa46-5bdc-11e7-907b-a6006ad3dba0" /></identifier><status value="completed" /><date value="2012-01-29" /><vaccineCode><coding><system value="http://snomed.info/sct" /><code value="9316611000001101" /><display value="BCG vaccine powder and solvent for suspension for injection vials (Statens Serum Institut) (product)" /></coding></vaccineCode><patient><reference value="urn:uuid:7368c5fe-bbb4-4e9c-a585-234e06b84e82" /><display value="SAXTON, Sarah Marie" /></patient><wasNotGiven value="false" /><reported value="false" /><encounter><reference value="urn:uuid:a8ca9fe6-72aa-11e7-8cf7-a6006ad3dba0" /></encounter><manufacturer><reference value="urn:uuid:e9dc2412-5bdc-11e7-907b-a6006ad3dba0" /><display value="Statens Serum Institut (SSI)" /></manufacturer><location><reference value="urn:uuid:e9dbf730-5bdc-11e7-907b-a6006ad3dba0" /><display value="Wood Town GP Practice" /></location><lotNumber value="114022A" /><site><coding><system value="http://snomed.info/sct" /><code value="123851003" /><display value="Mouth" /></coding></site><route><coding><system value="http://snomed.info/sct" /><code value="26643006" /><display value="Oral route" /></coding></route><doseQuantity><value value="0.05" /><system value="http://unitsofmeasure.org" /><code value="ml" /></doseQuantity><vaccinationProtocol><doseSequence value="1" /><targetDisease><coding><system value="http://snomed.info/sct" /><code value="56717001" /><display value="Tuberculosis (disorder)" /></coding></targetDisease><doseStatus><coding><system value="http://hl7.org/fhir/vaccination-protocol-dose-status" /><code value="count" /><display value="Counts" /></coding></doseStatus></vaccinationProtocol></Immunization></resource></entry><entry><fullUrl value="urn:uuid:a8ca9fe6-72aa-11e7-8cf7-a6006ad3dba0" /><resource><Encounter><id value="a8ca9fe6-72aa-11e7-8cf7-a6006ad3dba0" /><meta><profile value="https://fhir.nhs.uk/StructureDefinition/CareConnect-DCH-Encounter-1" /></meta><identifier><system value="https://tools.ietf.org/html/rfc4122" /><value value="a8ca9fe6-72aa-11e7-8cf7-a6006ad3dba0" /></identifier><status value="finished" /><type><coding><system value="https://fhir.nhs.uk/DCH-ChildHealthEventType-1" /><code value="Immunisation : Immunisation Administration" /><display value="Immunisation : Immunisation Administration" /></coding></type><patient><reference value="urn:uuid:7368c5fe-bbb4-4e9c-a585-234e06b84e82" /><display value="SAXTON, Sarah Marie" /></patient><participant><type><coding><system value="http://hl7.org/fhir/v3/ParticipationType" /><code value="PPRF" /><display value="primary performer" /></coding></type><individual><reference value="urn:uuid:e9dbf8e8-5bdc-11e7-907b-a6006ad3dba0" /><display value="JONES, Bob (Dr.)" /></individual></participant><period><start value="2012-01-29T09:00:00" /></period><location><location><reference value="urn:uuid:e9dbf730-5bdc-11e7-907b-a6006ad3dba0" /><display value="Wood Town GP Practice" /></location></location><serviceProvider><reference value="urn:uuid:5ccb6bb7-a7f1-46cc-a5d3-135320765553" /><display value="Leeds Teaching Hospitals NHS Trust" /></serviceProvider></Encounter></resource></entry><entry><fullUrl value="urn:uuid:e9dc1bc0-5bdc-11e7-907b-a6006ad3dba0" /><resource><Procedure><id value="e9dc1bc0-5bdc-11e7-907b-a6006ad3dba0" /><meta><profile value="https://fhir.nhs.uk/StructureDefinition/CareConnect-DCH-Procedure-1" /></meta><identifier><system value="https://tools.ietf.org/html/rfc4122" /><value value="e9dc1bc0-5bdc-11e7-907b-a6006ad3dba0" /></identifier><subject><reference value="urn:uuid:7368c5fe-bbb4-4e9c-a585-234e06b84e82" /><display value="SAXTON, Sarah Marie" /></subject><status value="completed" /><code><coding><system value="http://snomed.info/sct" /><code value="42284007" /><display value="Bacillus Calmette-Guerin vaccination (procedure)" /></coding></code><performedDateTime value="2012-01-29T09:00:00" /><encounter><reference value="urn:uuid:a8ca9fe6-72aa-11e7-8cf7-a6006ad3dba0" /></encounter></Procedure></resource></entry><entry><fullUrl value="urn:uuid:e9dbf8e8-5bdc-11e7-907b-a6006ad3dba0" /><resource><Practitioner><id value="e9dbf8e8-5bdc-11e7-907b-a6006ad3dba0" /><meta><profile value="https://fhir.hl7.org.uk/StructureDefinition/CareConnect-DCH-Practitioner-1" /></meta><identifier><system value="https://fhir.nhs.net/Id/sds-role-profile-id" /><value value="PT2468" /></identifier><name><family value="Jones" /><given value="Bob" /><prefix value="Dr." /></name><practitionerRole><managingOrganization><reference value="urn:uuid:5ccb6bb7-a7f1-46cc-a5d3-135320765553" /><display value="Leeds Teaching Hospitals NHS Trust" /></managingOrganization><role><coding><system value="http://fhir.nhs.net/ValueSet/sds-job-role-name-1" /><code value="R8000" /><display value="General Medical Practitioner" /></coding></role></practitionerRole></Practitioner></resource></entry><entry><fullUrl value="urn:uuid:e9dbf730-5bdc-11e7-907b-a6006ad3dba0" /><resource><Location><id value="e9dbf730-5bdc-11e7-907b-a6006ad3dba0" /><meta><profile value="https://fhir.hl7.org.uk/StructureDefinition/CareConnect-DCH-Location-1" /></meta><identifier><system value="https://fhir.nhs.uk/Id/ods-site-code" /><value value="B86022" /></identifier><name value="Wood Town GP practice" /><managingOrganization><reference value="urn:uuid:5ccb6bb7-a7f1-46cc-a5d3-135320765553" /><display value="Leeds Teaching Hospitals" /></managingOrganization></Location></resource></entry><entry><fullUrl value="urn:uuid:e9dc2412-5bdc-11e7-907b-a6006ad3dba0" /><resource><Organization><id value="e9dc2412-5bdc-11e7-907b-a6006ad3dba0" /><meta><profile value="https://fhir.hl7.org.uk/StructureDefinition/CareConnect-DCH-Organization-1" /></meta><name value="Statens Serum Institut (SSI)" /></Organization></resource></entry></Bundle>