{
  "resourceType": "Bundle",
  "id": "9a746c3c-686f-11e7-907b-a6006ad3dba0",
  "meta": {
    "profile": [
      "https://fhir.nhs.uk/StructureDefinition/DCH-Bundle-1"
    ]
  },
  "type": "message",
  "entry": [
    {
      "fullUrl": "urn:uuid:9a746d04-686f-11e7-907b-a6006ad3dba0",
      "resource": {
        "resourceType": "MessageHeader",
        "id": "9a746d04-686f-11e7-907b-a6006ad3dba0",
        "meta": {
          "profile": [
            "https://fhir.nhs.uk/StructureDefinition/DCH-NewbornBloodSpotScreening-MessageHeader-1"
          ]
        },
        "extension": [
          {
            "url": "https://fhir.nhs.uk/StructureDefinition/Extension-DCH-MessageEventType-1",
            "valueCodeableConcept": {
              "coding": [
                {
                  "system": "https://fhir.nhs.uk/DCH-MessageEventType-1",
                  "code": "new",
                  "display": "New event message"
                }
              ]
            }
          }
        ],
        "timestamp": "2012-01-10T09:00:00+00:00",
        "event": {
          "system": "https://fhir.nhs.uk/DCH-ChildHealthEventType-1",
          "code": "Newborn Blood Spot Screening",
          "display": "Newborn Blood Spot Screening"
        },
        "source": {
          "endpoint": "urn:nhs-uk:addressing:ods:695N0"
        },
        "responsible": {
          "reference": "urn:uuid:9a74549a-686f-11e7-907b-a6006ad3dba0",
          "display": "Leeds General Infirmary Laboratory"
        },
        "data": [
          {
            "reference": "urn:uuid:9a746f52-686f-11e7-907b-a6006ad3dba0"
          },
          {
            "reference": "urn:uuid:9a74701a-686f-11e7-907b-a6006ad3dba0"
          }
        ]
      }
    },
    {
      "fullUrl": "urn:uuid:9a74549a-686f-11e7-907b-a6006ad3dba0",
      "resource": {
        "resourceType": "Organization",
        "id": "9a74549a-686f-11e7-907b-a6006ad3dba0",
        "meta": {
          "profile": [
            "https://fhir.nhs.uk/StructureDefinition/CareConnect-DCH-Organization-1"
          ]
        },
        "identifier": [
          {
            "system": "https://fhir.nhs.uk/Id/ods-organization-code",
            "value": "695N0"
          }
        ],
        "name": "Leeds General Infirmary Laboratory"
      }
    },
    {
      "fullUrl": "urn:uuid:7368c5fe-bbb4-4e9c-a585-234e06b84e82",
      "resource": {
        "resourceType": "Patient",
        "id": "7368c5fe-bbb4-4e9c-a585-234e06b84e82",
        "meta": {
          "profile": [
            "https://fhir.nhs.uk/StructureDefinition/CareConnect-DCH-Patient-1"
          ]
        },
        "identifier": [
          {
            "extension": [
              {
                "url": "https://fhir.hl7.org.uk/StructureDefinition/Extension-CareConnect-NHSNumberVerificationStatus-1",
                "valueCodeableConcept": {
                  "coding": [
                    {
                      "system": "https://fhir.hl7.org.uk/CareConnect-NHSNumberVerificationStatus-1",
                      "code": "01",
                      "display": "Number present and verified"
                    }
                  ]
                }
              }
            ],
            "system": "https://fhir.nhs.uk/Id/nhs-number",
            "value": "5629874536"
          }
        ],
        "name": [
          {
            "use": "usual",
            "family": [
              "SAXTON"
            ],
            "given": [
              "Sarah",
              "Marie"
            ]
          }
        ],
        "gender": "female",
        "birthDate": "2012-01-07",
        "_birthDate": {
          "extension": [
            {
              "url": "http://hl7.org/fhir/StructureDefinition/patient-birthTime",
              "valueDateTime": "2012-01-07T20:12:00+00:00"
            }
          ]
        }
      }
    },
    {
      "fullUrl": "urn:uuid:9a74701a-686f-11e7-907b-a6006ad3dba0",
      "resource": {
        "resourceType": "QuestionnaireResponse",
        "id": "9a74701a-686f-11e7-907b-a6006ad3dba0",
        "meta": {
          "profile": [
            "https://fhir.nhs.uk/StructureDefinition/DCH-NewbornBloodSpotScreening-QuestionnaireResponse-1"
          ]
        },
        "identifier": {
          "system": "https://tools.ietf.org/html/rfc4122",
          "value": "9a74701a-686f-11e7-907b-a6006ad3dba0"
        },
        "status": "completed",
        "subject": {
          "reference": "urn:uuid:7368c5fe-bbb4-4e9c-a585-234e06b84e82",
          "display": "SAXTON, Sarah Marie"
        },
        "group": {
          "group": [
            {
              "title": "Screening Blood Spot Test Outcome",
              "question": [
                {
                  "text": "The date that a Blood Spot Screening Test Result was received by a Health Care Provider from the testing laboratory",
                  "answer": [
                    {
                      "valueDateTime": "2012-01-10T09:00:00+00:00"
                    },
                    {
                      "valueReference": {
                        "reference": "urn:uuid:9a746b4c-686f-11e7-907b-a6006ad3dba0"
                      }
                    }
                  ]
                },
                {
                  "text": "Screening outcome for Phenylketonuria (PKU)",
                  "answer": [
                    {
                      "valueCoding": {
                        "system": "https://fhir.nhs.uk/DCH-BloodSpotScreeningOutcome-1",
                        "code": "04",
                        "display": "(Condition screened for) Not suspected"
                      }
                    },
                    {
                      "valueReference": {
                        "reference": "urn:uuid:9a745cb0-686f-11e7-907b-a6006ad3dba0"
                      }
                    }
                  ]
                },
                {
                  "text": "Screening outcome for Sickle Cell Disease (SCD)",
                  "answer": [
                    {
                      "valueCoding": {
                        "system": "https://fhir.nhs.uk/DCH-BloodSpotScreeningOutcome-1",
                        "code": "04",
                        "display": "(Condition screened for) Not suspected"
                      }
                    },
                    {
                      "valueReference": {
                        "reference": "urn:uuid:9a7467c8-686f-11e7-907b-a6006ad3dba0"
                      }
                    }
                  ]
                },
                {
                  "text": "Screening outcome for Cystic Fibrosis (CF)",
                  "answer": [
                    {
                      "valueCoding": {
                        "system": "https://fhir.nhs.uk/DCH-BloodSpotScreeningOutcome-1",
                        "code": "04",
                        "display": "(Condition screened for) Not suspected"
                      }
                    },
                    {
                      "valueReference": {
                        "reference": "urn:uuid:9a74670a-686f-11e7-907b-a6006ad3dba0"
                      }
                    }
                  ]
                },
                {
                  "text": "Screening outcome for Congenital hypothyroidism (CHT)",
                  "answer": [
                    {
                      "valueCoding": {
                        "system": "https://fhir.nhs.uk/DCH-BloodSpotScreeningOutcome-1",
                        "code": "04",
                        "display": "(Condition screened for) Not suspected"
                      }
                    },
                    {
                      "valueReference": {
                        "reference": "urn:uuid:9a74664c-686f-11e7-907b-a6006ad3dba0"
                      }
                    }
                  ]
                },
                {
                  "text": "Screening outcome for Medium-chain acyl-COA dehydrogenase deficiency (MCADD)",
                  "answer": [
                    {
                      "valueCoding": {
                        "system": "https://fhir.nhs.uk/DCH-BloodSpotScreeningOutcome-1",
                        "code": "04",
                        "display": "(Condition screened for) Not suspected"
                      }
                    },
                    {
                      "valueReference": {
                        "reference": "urn:uuid:9a745ecc-686f-11e7-907b-a6006ad3dba0"
                      }
                    }
                  ]
                },
                {
                  "text": "Screening outcome for Homocystinuria (pyroxidine unresponsive) (HCU)",
                  "answer": [
                    {
                      "valueCoding": {
                        "system": "https://fhir.nhs.uk/DCH-BloodSpotScreeningOutcome-1",
                        "code": "04",
                        "display": "(Condition screened for) Not suspected"
                      }
                    },
                    {
                      "valueReference": {
                        "reference": "urn:uuid:9a7464c6-686f-11e7-907b-a6006ad3dba0"
                      }
                    }
                  ]
                },
                {
                  "text": "Screening outcome for Maple syrup urine disease (MSUD)",
                  "answer": [
                    {
                      "valueCoding": {
                        "system": "https://fhir.nhs.uk/DCH-BloodSpotScreeningOutcome-1",
                        "code": "04",
                        "display": "(Condition screened for) Not suspected"
                      }
                    },
                    {
                      "valueReference": {
                        "reference": "urn:uuid:9a745df0-686f-11e7-907b-a6006ad3dba0"
                      }
                    }
                  ]
                },
                {
                  "text": "Screening outcome for Glutaric aciduria type 1 (GA1)",
                  "answer": [
                    {
                      "valueCoding": {
                        "system": "https://fhir.nhs.uk/DCH-BloodSpotScreeningOutcome-1",
                        "code": "04",
                        "display": "(Condition screened for) Not suspected"
                      }
                    },
                    {
                      "valueReference": {
                        "reference": "urn:uuid:9a74658e-686f-11e7-907b-a6006ad3dba0"
                      }
                    }
                  ]
                },
                {
                  "text": "Screening outcome for Isovaleric acidaemia (IVA)",
                  "answer": [
                    {
                      "valueCoding": {
                        "system": "https://fhir.nhs.uk/DCH-BloodSpotScreeningOutcome-1",
                        "code": "04",
                        "display": "(Condition screened for) Not suspected"
                      }
                    },
                    {
                      "valueReference": {
                        "reference": "urn:uuid:9a7463ae-686f-11e7-907b-a6006ad3dba0"
                      }
                    }
                  ]
                }
              ]
            }
          ]
        }
      }
    },
    {
      "fullUrl": "urn:uuid:9a746f52-686f-11e7-907b-a6006ad3dba0",
      "resource": {
        "resourceType": "Encounter",
        "id": "9a746f52-686f-11e7-907b-a6006ad3dba0",
        "meta": {
          "profile": [
            "https://fhir.nhs.uk/StructureDefinition/CareConnect-DCH-Encounter-1"
          ]
        },
        "identifier": [
          {
            "system": "https://tools.ietf.org/html/rfc4122",
            "value": "9a746f52-686f-11e7-907b-a6006ad3dba0"
          }
        ],
        "status": "finished",
        "type": [
          {
            "coding": [
              {
                "system": "https://fhir.nhs.uk/DCH-ChildHealthEncounterType-1",
                "code": "Newborn Blood Spot Test Outcome",
                "display": "Newborn Blood Spot Test Outcome"
              }
            ]
          }
        ],
        "patient": {
          "reference": "urn:uuid:7368c5fe-bbb4-4e9c-a585-234e06b84e82",
          "display": "SAXTON, Sarah Marie"
        },
        "period": {
          "start": "2012-01-10T09:00:00+00:00"
        },
        "serviceProvider": {
          "reference": "urn:uuid:9a74549a-686f-11e7-907b-a6006ad3dba0",
          "display": "Leeds General Infirmary Laboratory"
        }
      }
    },
    {
      "fullUrl": "urn:uuid:9a746b4c-686f-11e7-907b-a6006ad3dba0",
      "resource": {
        "resourceType": "DiagnosticReport",
        "id": "9a746b4c-686f-11e7-907b-a6006ad3dba0",
        "meta": {
          "profile": [
            "https://fhir.nhs.uk/StructureDefinition/DCH-NewbornBloodSpotScreening-DiagnosticReport-1"
          ]
        },
        "identifier": [
          {
            "system": "https://tools.ietf.org/html/rfc4122",
            "value": "9a746b4c-686f-11e7-907b-a6006ad3dba0"
          }
        ],
        "status": "final",
        "code": {
          "coding": [
            {
              "system": "http://snomed.info/sct",
              "code": "428447008",
              "display": "Newborn blood spot screening"
            }
          ]
        },
        "subject": {
          "reference": "urn:uuid:7368c5fe-bbb4-4e9c-a585-234e06b84e82",
          "display": "SAXTON, Sarah Marie"
        },
        "effectiveDateTime": "2012-01-09T10:00:00+00:00",
        "issued": "2012-01-10T09:00:00+00:00",
        "performer": {
          "reference": "urn:uuid:9a74549a-686f-11e7-907b-a6006ad3dba0",
          "display": "Leeds General Infirmary Laboratory"
        },
        "result": [
          {
            "reference": "urn:uuid:9a745cb0-686f-11e7-907b-a6006ad3dba0"
          },
          {
            "reference": "urn:uuid:9a7467c8-686f-11e7-907b-a6006ad3dba0"
          },
          {
            "reference": "urn:uuid:9a74670a-686f-11e7-907b-a6006ad3dba0"
          },
          {
            "reference": "urn:uuid:9a74664c-686f-11e7-907b-a6006ad3dba0"
          },
          {
            "reference": "urn:uuid:9a745ecc-686f-11e7-907b-a6006ad3dba0"
          },
          {
            "reference": "urn:uuid:9a7464c6-686f-11e7-907b-a6006ad3dba0"
          },
          {
            "reference": "urn:uuid:9a745df0-686f-11e7-907b-a6006ad3dba0"
          },
          {
            "reference": "urn:uuid:9a74658e-686f-11e7-907b-a6006ad3dba0"
          },
          {
            "reference": "urn:uuid:9a7463ae-686f-11e7-907b-a6006ad3dba0"
          }
        ]
      }
    },
    {
      "fullUrl": "urn:uuid:9a745cb0-686f-11e7-907b-a6006ad3dba0",
      "resource": {
        "resourceType": "Procedure",
        "id": "9a745cb0-686f-11e7-907b-a6006ad3dba0",
        "meta": {
          "profile": [
            "https://fhir.nhs.uk/StructureDefinition/CareConnect-DCH-NewbornBloodSpotScreening-Procedure-1"
          ]
        },
        "identifier": [
          {
            "system": "https://tools.ietf.org/html/rfc4122",
            "value": "9a745cb0-686f-11e7-907b-a6006ad3dba0"
          }
        ],
        "subject": {
          "reference": "urn:uuid:7368c5fe-bbb4-4e9c-a585-234e06b84e82",
          "display": "SAXTON, Sarah Marie"
        },
        "status": "completed",
        "code": {
          "coding": [
            {
              "system": "http://snomed.info/sct",
              "code": "314081000",
              "display": "Phenylketonuria screening test (procedure)"
            }
          ]
        },
        "performedDateTime": "2012-01-09T10:00:00+00:00",
        "outcome": {
          "coding": [
            {
              "system": "https://fhir.nhs.uk/DCH-BloodSpotScreeningOutcome-1",
              "code": "04",
              "display": "(Condition screened for) Not suspected"
            }
          ]
        }
      }
    },
    {
      "fullUrl": "urn:uuid:9a7467c8-686f-11e7-907b-a6006ad3dba0",
      "resource": {
        "resourceType": "Procedure",
        "id": "9a7467c8-686f-11e7-907b-a6006ad3dba0",
        "meta": {
          "profile": [
            "https://fhir.nhs.uk/StructureDefinition/CareConnect-DCH-NewbornBloodSpotScreening-Procedure-1"
          ]
        },
        "identifier": [
          {
            "system": "https://tools.ietf.org/html/rfc4122",
            "value": "9a7467c8-686f-11e7-907b-a6006ad3dba0"
          }
        ],
        "subject": {
          "reference": "urn:uuid:7368c5fe-bbb4-4e9c-a585-234e06b84e82",
          "display": "SAXTON, Sarah Marie"
        },
        "status": "completed",
        "code": {
          "coding": [
            {
              "system": "http://snomed.info/sct",
              "code": "314090007",
              "display": "Sickle cell disease screening test (procedure)"
            }
          ]
        },
        "performedDateTime": "2012-01-09T10:00:00+00:00",
        "outcome": {
          "coding": [
            {
              "system": "https://fhir.nhs.uk/DCH-BloodSpotScreeningOutcome-1",
              "code": "04",
              "display": "(Condition screened for) Not suspected"
            }
          ]
        }
      }
    },
    {
      "fullUrl": "urn:uuid:9a74670a-686f-11e7-907b-a6006ad3dba0",
      "resource": {
        "resourceType": "Procedure",
        "id": "9a74670a-686f-11e7-907b-a6006ad3dba0",
        "meta": {
          "profile": [
            "https://fhir.nhs.uk/StructureDefinition/CareConnect-DCH-NewbornBloodSpotScreening-Procedure-1"
          ]
        },
        "identifier": [
          {
            "system": "https://tools.ietf.org/html/rfc4122",
            "value": "9a74670a-686f-11e7-907b-a6006ad3dba0"
          }
        ],
        "subject": {
          "reference": "urn:uuid:7368c5fe-bbb4-4e9c-a585-234e06b84e82",
          "display": "SAXTON, Sarah Marie"
        },
        "status": "completed",
        "code": {
          "coding": [
            {
              "system": "http://snomed.info/sct",
              "code": "314080004",
              "display": "Cystic fibrosis screening test (procedure)"
            }
          ]
        },
        "performedDateTime": "2012-01-09T10:00:00+00:00",
        "outcome": {
          "coding": [
            {
              "system": "https://fhir.nhs.uk/DCH-BloodSpotScreeningOutcome-1",
              "code": "04",
              "display": "(Condition screened for) Not suspected"
            }
          ]
        }
      }
    },
    {
      "fullUrl": "urn:uuid:9a74664c-686f-11e7-907b-a6006ad3dba0",
      "resource": {
        "resourceType": "Procedure",
        "id": "9a74664c-686f-11e7-907b-a6006ad3dba0",
        "meta": {
          "profile": [
            "https://fhir.nhs.uk/StructureDefinition/CareConnect-DCH-NewbornBloodSpotScreening-Procedure-1"
          ]
        },
        "identifier": [
          {
            "system": "https://tools.ietf.org/html/rfc4122",
            "value": "9a74664c-686f-11e7-907b-a6006ad3dba0"
          }
        ],
        "subject": {
          "reference": "urn:uuid:7368c5fe-bbb4-4e9c-a585-234e06b84e82",
          "display": "SAXTON, Sarah Marie"
        },
        "status": "completed",
        "code": {
          "coding": [
            {
              "system": "http://snomed.info/sct",
              "code": "400984005",
              "display": "Congenital hypothyroidism screening test (procedure)"
            }
          ]
        },
        "performedDateTime": "2012-01-09T10:00:00+00:00",
        "outcome": {
          "coding": [
            {
              "system": "https://fhir.nhs.uk/DCH-BloodSpotScreeningOutcome-1",
              "code": "04",
              "display": "(Condition screened for) Not suspected"
            }
          ]
        }
      }
    },
    {
      "fullUrl": "urn:uuid:9a745ecc-686f-11e7-907b-a6006ad3dba0",
      "resource": {
        "resourceType": "Procedure",
        "id": "9a745ecc-686f-11e7-907b-a6006ad3dba0",
        "meta": {
          "profile": [
            "https://fhir.nhs.uk/StructureDefinition/CareConnect-DCH-NewbornBloodSpotScreening-Procedure-1"
          ]
        },
        "identifier": [
          {
            "system": "https://tools.ietf.org/html/rfc4122",
            "value": "9a745ecc-686f-11e7-907b-a6006ad3dba0"
          }
        ],
        "subject": {
          "reference": "urn:uuid:7368c5fe-bbb4-4e9c-a585-234e06b84e82",
          "display": "SAXTON, Sarah Marie"
        },
        "status": "completed",
        "code": {
          "coding": [
            {
              "system": "http://snomed.info/sct",
              "code": "428056008",
              "display": "Medium-chain acyl-coenzyme A dehydrogenase deficiency screening test (procedure)"
            }
          ]
        },
        "performedDateTime": "2012-01-09T10:00:00+00:00",
        "outcome": {
          "coding": [
            {
              "system": "https://fhir.nhs.uk/DCH-BloodSpotScreeningOutcome-1",
              "code": "04",
              "display": "(Condition screened for) Not suspected"
            }
          ]
        }
      }
    },
    {
      "fullUrl": "urn:uuid:9a7464c6-686f-11e7-907b-a6006ad3dba0",
      "resource": {
        "resourceType": "Procedure",
        "id": "9a7464c6-686f-11e7-907b-a6006ad3dba0",
        "meta": {
          "profile": [
            "https://fhir.nhs.uk/StructureDefinition/CareConnect-DCH-NewbornBloodSpotScreening-Procedure-1"
          ]
        },
        "identifier": [
          {
            "system": "https://tools.ietf.org/html/rfc4122",
            "value": "9a7464c6-686f-11e7-907b-a6006ad3dba0"
          }
        ],
        "subject": {
          "reference": "urn:uuid:7368c5fe-bbb4-4e9c-a585-234e06b84e82",
          "display": "SAXTON, Sarah Marie"
        },
        "status": "completed",
        "code": {
          "coding": [
            {
              "system": "http://snomed.info/sct",
              "code": "940201000000107",
              "display": "Blood spot homocystinuria screening test (procedure)"
            }
          ]
        },
        "performedDateTime": "2012-01-09T10:00:00+00:00",
        "outcome": {
          "coding": [
            {
              "system": "https://fhir.nhs.uk/DCH-BloodSpotScreeningOutcome-1",
              "code": "04",
              "display": "(Condition screened for) Not suspected"
            }
          ]
        }
      }
    },
    {
      "fullUrl": "urn:uuid:9a745df0-686f-11e7-907b-a6006ad3dba0",
      "resource": {
        "resourceType": "Procedure",
        "id": "9a745df0-686f-11e7-907b-a6006ad3dba0",
        "meta": {
          "profile": [
            "https://fhir.nhs.uk/StructureDefinition/CareConnect-DCH-NewbornBloodSpotScreening-Procedure-1"
          ]
        },
        "identifier": [
          {
            "system": "https://tools.ietf.org/html/rfc4122",
            "value": "9a745df0-686f-11e7-907b-a6006ad3dba0"
          }
        ],
        "subject": {
          "reference": "urn:uuid:7368c5fe-bbb4-4e9c-a585-234e06b84e82",
          "display": "SAXTON, Sarah Marie"
        },
        "status": "completed",
        "code": {
          "coding": [
            {
              "system": "http://snomed.info/sct",
              "code": "940221000000103",
              "display": "Blood spot maple syrup urine disease screening test (procedure)"
            }
          ]
        },
        "performedDateTime": "2012-01-09T10:00:00+00:00",
        "outcome": {
          "coding": [
            {
              "system": "https://fhir.nhs.uk/DCH-BloodSpotScreeningOutcome-1",
              "code": "04",
              "display": "(Condition screened for) Not suspected"
            }
          ]
        }
      }
    },
    {
      "fullUrl": "urn:uuid:9a74658e-686f-11e7-907b-a6006ad3dba0",
      "resource": {
        "resourceType": "Procedure",
        "id": "9a74658e-686f-11e7-907b-a6006ad3dba0",
        "meta": {
          "profile": [
            "https://fhir.nhs.uk/StructureDefinition/CareConnect-DCH-NewbornBloodSpotScreening-Procedure-1"
          ]
        },
        "identifier": [
          {
            "system": "https://tools.ietf.org/html/rfc4122",
            "value": "9a74658e-686f-11e7-907b-a6006ad3dba0"
          }
        ],
        "subject": {
          "reference": "urn:uuid:7368c5fe-bbb4-4e9c-a585-234e06b84e82",
          "display": "SAXTON, Sarah Marie"
        },
        "status": "completed",
        "code": {
          "coding": [
            {
              "system": "http://snomed.info/sct",
              "code": "940131000000109",
              "display": "Blood spot glutaric aciduria type 1 screening test (procedure)"
            }
          ]
        },
        "performedDateTime": "2012-01-09T10:00:00+00:00",
        "outcome": {
          "coding": [
            {
              "system": "https://fhir.nhs.uk/DCH-BloodSpotScreeningOutcome-1",
              "code": "04",
              "display": "(Condition screened for) Not suspected"
            }
          ]
        }
      }
    },
    {
      "fullUrl": "urn:uuid:9a7463ae-686f-11e7-907b-a6006ad3dba0",
      "resource": {
        "resourceType": "Procedure",
        "id": "9a7463ae-686f-11e7-907b-a6006ad3dba0",
        "meta": {
          "profile": [
            "https://fhir.nhs.uk/StructureDefinition/CareConnect-DCH-NewbornBloodSpotScreening-Procedure-1"
          ]
        },
        "identifier": [
          {
            "system": "https://tools.ietf.org/html/rfc4122",
            "value": "9a7463ae-686f-11e7-907b-a6006ad3dba0"
          }
        ],
        "subject": {
          "reference": "urn:uuid:7368c5fe-bbb4-4e9c-a585-234e06b84e82",
          "display": "SAXTON, Sarah Marie"
        },
        "status": "completed",
        "code": {
          "coding": [
            {
              "system": "http://snomed.info/sct",
              "code": "940151000000102",
              "display": "Blood spot isovaleric acidaemia screening test (procedure)"
            }
          ]
        },
        "performedDateTime": "2012-01-09T10:00:00+00:00",
        "outcome": {
          "coding": [
            {
              "system": "https://fhir.nhs.uk/DCH-BloodSpotScreeningOutcome-1",
              "code": "04",
              "display": "(Condition screened for) Not suspected"
            }
          ]
        }
      }
    }
  ]
}