<Bundle xmlns="http://hl7.org/fhir"><id value="9a744f86-686f-11e7-907b-a6006ad3dba0" /><meta><profile value="https://fhir.nhs.uk/StructureDefinition/DCH-Bundle-1" /></meta><type value="message" /><entry><fullUrl value="urn:uuid:9a74504e-686f-11e7-907b-a6006ad3dba0" /><resource><MessageHeader><id value="9a74504e-686f-11e7-907b-a6006ad3dba0" /><meta><profile value="https://fhir.nhs.uk/StructureDefinition/DCH-MessageHeader-1" /></meta><extension url="https://fhir.nhs.uk/StructureDefinition/Extension-DCH-MessageEventType-1"><valueCodeableConcept><coding><system value="https://fhir.nhs.uk/DCH-MessageEventType-1" /><code value="new" /><display value="New event message" /></coding></valueCodeableConcept></extension><timestamp value="2012-01-09T09:00:00+00:00" /><event><system value="https://fhir.nhs.uk/DCH-ChildHealthEventType-1" /><code value="CH006" /><display value="Blood Spot" /></event><source><endpoint value="urn:nhs-uk:addressing:ods:695N0" /></source><responsible><reference value="urn:uuid:9a74549a-686f-11e7-907b-a6006ad3dba0" /><display value="Leeds General Infirmary Laboratory" /></responsible><data><reference value="urn:uuid:9a745b66-686f-11e7-907b-a6006ad3dba0" /></data></MessageHeader></resource></entry><entry><fullUrl value="urn:uuid:9a74549a-686f-11e7-907b-a6006ad3dba0" /><resource><Organization><id value="9a74549a-686f-11e7-907b-a6006ad3dba0" /><meta><profile value="https://fhir.nhs.uk/StructureDefinition/CareConnect-DCH-Organization-1" /></meta><identifier><system value="https://fhir.nhs.uk/Id/ods-organization-code" /><value value="695N0" /></identifier><name value="Leeds General Infirmary Laboratory" /></Organization></resource></entry><entry><fullUrl value="urn:uuid:260b4fd0-b3df-11e7-abc4-cec278b6b50a" /><resource><Location><id value="260b4fd0-b3df-11e7-abc4-cec278b6b50a" /><meta><profile value="https://fhir.hl7.org.uk/StructureDefinition/CareConnect-DCH-Location-1" /></meta><identifier><system value="https://fhir.nhs.uk/Id/local-location-identifier" /><value value="695N0-BSS" /></identifier><name value="Blood Spot Screening Department" /><managingOrganization><reference value="urn:uuid:5ccb6bb7-a7f1-46cc-a5d3-135320765553" /><display value="Leeds Teaching Hospitals NHS Trust" /></managingOrganization></Location></resource></entry><entry><fullUrl value="urn:uuid:260b2f78-b3df-11e7-abc4-cec278b6b50a" /><resource><HealthcareService><id value="260b2f78-b3df-11e7-abc4-cec278b6b50a" /><meta><profile value="https://fhir.nhs.uk/StructureDefinition/DCH-HealthcareService-1" /></meta><identifier><system value="https://tools.ietf.org/html/rfc4122" /><value value="260b2f78-b3df-11e7-abc4-cec278b6b50a" /></identifier><providedBy><reference value="urn:uuid:9a74549a-686f-11e7-907b-a6006ad3dba0" /><display value="Leeds General Infirmary Laboratory" /></providedBy><serviceType><type><coding><system value="https://fhir.nhs.uk/DCH-ProfessionalType-1" /><code value="C99" /><display value="Other Care Professional" /></coding></type></serviceType><location><reference value="urn:uuid:260b4fd0-b3df-11e7-abc4-cec278b6b50a" /><display value="Blood Spot Screening Department" /></location></HealthcareService></resource></entry><entry><fullUrl value="urn:uuid:7368c5fe-bbb4-4e9c-a585-234e06b84e82" /><resource><Patient><id value="7368c5fe-bbb4-4e9c-a585-234e06b84e82" /><meta><profile value="https://fhir.nhs.uk/StructureDefinition/CareConnect-DCH-Patient-1" /></meta><identifier><extension url="https://fhir.hl7.org.uk/StructureDefinition/Extension-CareConnect-NHSNumberVerificationStatus-1"><valueCodeableConcept><coding><system value="https://fhir.hl7.org.uk/CareConnect-NHSNumberVerificationStatus-1" /><code value="01" /><display value="Number present and verified" /></coding></valueCodeableConcept></extension><system value="https://fhir.nhs.uk/Id/nhs-number" /><value value="5629874536" /></identifier><name><use value="usual" /><family value="SAXTON" /><given value="Sarah" /><given value="Marie" /></name><gender value="female" /><birthDate value="2012-01-07"><extension url="http://hl7.org/fhir/StructureDefinition/patient-birthTime"><valueDateTime value="2012-01-07T20:12:00+00:00" /></extension></birthDate></Patient></resource></entry><entry><fullUrl value="urn:uuid:9a745b66-686f-11e7-907b-a6006ad3dba0" /><resource><Encounter><id value="9a745b66-686f-11e7-907b-a6006ad3dba0" /><meta><profile value="https://fhir.nhs.uk/StructureDefinition/CareConnect-DCH-Encounter-1" /></meta><identifier><system value="https://tools.ietf.org/html/rfc4122" /><value value="9a745b66-686f-11e7-907b-a6006ad3dba0" /></identifier><status value="finished" /><patient><reference value="urn:uuid:7368c5fe-bbb4-4e9c-a585-234e06b84e82" /><display value="SAXTON, Sarah Marie" /></patient><period><start value="2012-01-09T09:00:00+00:00" /></period><location><location><reference value="urn:uuid:260b4fd0-b3df-11e7-abc4-cec278b6b50a" /><display value="Blood Spot Screening Department" /></location></location><serviceProvider><reference value="urn:uuid:9a74549a-686f-11e7-907b-a6006ad3dba0" /><display value="Leeds General Infirmary Laboratory" /></serviceProvider></Encounter></resource></entry><entry><fullUrl value="urn:uuid:9a7459f4-686f-11e7-907b-a6006ad3dba0" /><resource><Specimen><id value="9a7459f4-686f-11e7-907b-a6006ad3dba0" /><meta><profile value="https://fhir.nhs.uk/StructureDefinition/DCH-Specimen-1" /></meta><identifier><system value="https://tools.ietf.org/html/rfc4122" /><value value="9a7459f4-686f-11e7-907b-a6006ad3dba0" /></identifier><subject><reference value="urn:uuid:7368c5fe-bbb4-4e9c-a585-234e06b84e82" /><display value="SAXTON, Sarah Marie" /></subject><receivedTime value="2012-01-09T09:00:00+00:00" /></Specimen></resource></entry></Bundle>