<?xml version="1.0" encoding="UTF-8"?>
<Bundle xmlns="http://hl7.org/fhir" xmlns:xsi="http://www.w3.org/2001/XMLSchema-instance" xsi:schemaLocation="http://hl7.org/fhir ../../Schemas/bundle.xsd">
	<id value="9a744f86-686f-11e7-907b-a6006ad3dba0"/>
	<meta>
		<profile value="https://fhir.nhs.uk/StructureDefinition/DCH-Bundle-1"/>
	</meta>
	<type value="message"/>
	<entry>
		<fullUrl value="urn:uuid:9a74504e-686f-11e7-907b-a6006ad3dba0"/>
		<resource>
			<MessageHeader>
				<id value="9a74504e-686f-11e7-907b-a6006ad3dba0"/>
				<meta>
					<profile value="https://fhir.nhs.uk/StructureDefinition/DCH-NewbornBloodSpotScreening-MessageHeader-1"/>
				</meta>
				<extension url="https://fhir.nhs.uk/StructureDefinition/Extension-DCH-MessageEventType-1">
					<valueCodeableConcept>
						<coding>
							<system value="https://fhir.nhs.uk/DCH-MessageEventType-1"/>
							<code value="new"/>
							<display value="New event message"/>
						</coding>
					</valueCodeableConcept>
				</extension>
				<timestamp value="2012-01-09T09:00:00+00:00"/>
				<event>
					<system value="https://fhir.nhs.uk/DCH-ChildHealthEventType-1"/>
					<code value="Newborn Blood Spot Screening"/>
					<display value="Newborn Blood Spot Screening"/>
				</event>
				<source>
					<endpoint value="urn:nhs-uk:addressing:ods:695N0"/>
				</source>
				<responsible>
						<reference value="urn:uuid:9a74549a-686f-11e7-907b-a6006ad3dba0"/>
						<display value="Leeds General Infirmary Laboratory"/>
				</responsible>
				<data>
					<reference value="urn:uuid:9a745b66-686f-11e7-907b-a6006ad3dba0"/>
				</data>
				<data>
					<reference value="urn:uuid:9a7451ac-686f-11e7-907b-a6006ad3dba0"/>
				</data>
			</MessageHeader>
		</resource>
	</entry>
	<entry>
		<fullUrl value="urn:uuid:9a74549a-686f-11e7-907b-a6006ad3dba0"/>
		<resource>
			<Organization>
				<id value="9a74549a-686f-11e7-907b-a6006ad3dba0"/>
				<meta>
					<profile value="https://fhir.hl7.org.uk/StructureDefinition/CareConnect-Organization-1"/>
				</meta>
				<identifier>
					<system value="https://fhir.nhs.uk/Id/ods-organization-code"/>
					<value value="695N0"/>
				</identifier>
				<name value="Leeds General Infirmary Laboratory"/>
			</Organization>
		</resource>
	</entry>
	<entry>
		<fullUrl value="urn:uuid:7368c5fe-bbb4-4e9c-a585-234e06b84e82"/>
		<resource>
			<Patient>
				<id value="7368c5fe-bbb4-4e9c-a585-234e06b84e82"/>
				<meta>
					<profile value="https://fhir.hl7.org.uk/StructureDefinition/CareConnect-DCH-Patient-1"/>
				</meta>
				<identifier>
					<extension url="https://fhir.hl7.org.uk/StructureDefinition/Extension-CareConnect-NHSNumberVerificationStatus-1">
						<valueCodeableConcept>
							<coding>
								<system value="https://fhir.hl7.org.uk/CareConnect-NHSNumberVerificationStatus-1"/>
								<code value="01"/>
								<display value="Number present and verified"/>
							</coding>
						</valueCodeableConcept>
					</extension>
					<system value="https://fhir.nhs.uk/Id/nhs-number"/>
					<value value="5629874536"/>
				</identifier>
				<name>
					<use value="usual"/>
					<family value="SAXTON"/>
					<given value="Sarah"/>
					<given value="Marie"/>
				</name>
				<gender value="female"/>
				<birthDate value="2012-01-07">
					<extension url="http://hl7.org/fhir/StructureDefinition/patient-birthTime">
						<valueDateTime value="2012-01-07T20:12:00+00:00"/>
					</extension>
				</birthDate>
			</Patient>
		</resource>
	</entry>
	<entry>
		<fullUrl value="urn:uuid:9a7451ac-686f-11e7-907b-a6006ad3dba0"/>
		<resource>
			<QuestionnaireResponse>
				<id value="9a7451ac-686f-11e7-907b-a6006ad3dba0"/>
				<meta>
					<profile value="https://fhir.nhs.uk/StructureDefinition/DCH-NewbornBloodSpotScreening-QuestionnaireResponse-1"/>
				</meta>
				<identifier>
					<system value="https://tools.ietf.org/html/rfc4122"/>
					<value value="9a7451ac-686f-11e7-907b-a6006ad3dba0"/>
				</identifier>
				<status value="completed"/>
				<subject>
					<reference value="urn:uuid:7368c5fe-bbb4-4e9c-a585-234e06b84e82"/>
					<display value="SAXTON, Sarah Marie"/>
				</subject>
				<group>
					<group>
						<title value="Screening Blood Spot Administrative Status"/>
						<question>
							<text value="The date that a Blood Spot Test result was received by testing laboratory"/>
							<answer>
								<valueDateTime value="2012-01-09T09:00:00+00:00"/>
							</answer>
							<answer>
								<valueReference>
									<reference value="urn:uuid:9a7459f4-686f-11e7-907b-a6006ad3dba0"/>
								</valueReference>
							</answer>
						</question>
						<question>
							<text value="The unique identifier of the laboratory undertaking blood spot screening"/>
							<answer>
								<valueString value="695N0"/>
							</answer>
							<answer>
								<valueReference>
									<reference value="urn:uuid:9a74549a-686f-11e7-907b-a6006ad3dba0"/>
								</valueReference>
							</answer>
						</question>
						<question>
							<text value="The date that a Blood Spot sample was sent to the testing laboratory"/>
							<answer>
								<valueDateTime value="2012-01-08T10:00:00+00:00"/>
							</answer>
							<answer>
								<valueReference>
									<reference value="urn:uuid:9a745814-686f-11e7-907b-a6006ad3dba0"/>
								</valueReference>
							</answer>
						</question>
					</group>
				</group>
			</QuestionnaireResponse>
		</resource>
	</entry>
	<entry>
		<fullUrl value="urn:uuid:9a745b66-686f-11e7-907b-a6006ad3dba0"/>
		<resource>
			<Encounter>
				<id value="9a745b66-686f-11e7-907b-a6006ad3dba0"/>
				<meta>
					<profile value="https://fhir.hl7.org.uk/StructureDefinition/CareConnect-DCH-Encounter-1"/>
				</meta>
				<identifier>
					<system value="https://tools.ietf.org/html/rfc4122"/>
					<value value="9a745b66-686f-11e7-907b-a6006ad3dba0"/>
				</identifier>
				<status value="finished"/>
				<type>
					<coding>
						<system value="https://fhir.nhs.uk/DCH-ChildHealthEncounterType-1"/>
						<code value="Newborn Blood Spot Administrative Status"/>
						<display value="Newborn Blood Spot Administrative Status"/>
					</coding>
				</type>
				<patient>
					<reference value="urn:uuid:7368c5fe-bbb4-4e9c-a585-234e06b84e82"/>
					<display value="SAXTON, Sarah Marie"/>
				</patient>
				<period>
					<start value="2012-01-09T09:00:00+00:00"/>
				</period>
				<serviceProvider>
					<reference value="urn:uuid:9a74549a-686f-11e7-907b-a6006ad3dba0"/>
					<display value="Leeds General Infirmary Laboratory"/>
				</serviceProvider>
			</Encounter>
		</resource>
	</entry>
	<entry>
		<fullUrl value="urn:uuid:9a7459f4-686f-11e7-907b-a6006ad3dba0"/>
		<resource>
			<Specimen>
				<id value="9a7459f4-686f-11e7-907b-a6006ad3dba0"/>
				<meta>
					<profile value="https://fhir.nhs.uk/StructureDefinition/DCH-Specimen-1"/>
				</meta>
				<identifier>
					<system value="https://tools.ietf.org/html/rfc4122"/>
					<value value="9a7459f4-686f-11e7-907b-a6006ad3dba0"/>
				</identifier>
				<subject>
					<reference value="urn:uuid:7368c5fe-bbb4-4e9c-a585-234e06b84e82"/>
					<display value="SAXTON, Sarah Marie"/>
				</subject>
				<receivedTime value="2012-01-09T09:00:00+00:00"/>
			</Specimen>
		</resource>
	</entry>
	<entry>
		<fullUrl value="urn:uuid:9a745814-686f-11e7-907b-a6006ad3dba0"/>
		<resource>
			<ProcedureRequest>
				<id value="9a745814-686f-11e7-907b-a6006ad3dba0"/>
				<meta>
					<profile value="https://fhir.nhs.uk/StructureDefinition/DCH-ProcedureRequest-1"/>
				</meta>
				<identifier>
					<system value="https://tools.ietf.org/html/rfc4122"/>
					<value value="9a745814-686f-11e7-907b-a6006ad3dba0"/>
				</identifier>
				<subject>
					<reference value="urn:uuid:7368c5fe-bbb4-4e9c-a585-234e06b84e82"/>
					<display value="SAXTON, Sarah Marie"/>
				</subject>
				<code>
					<coding>
						<system value="http://snomed.info/sct"/>
						<code value="428447008"/>
						<display value="Newborn blood spot screening"/>
					</coding>
				</code>
				<performer>
					<reference value="urn:uuid:9a74549a-686f-11e7-907b-a6006ad3dba0"/>
					<display value="Leeds General Infirmary Laboratory"/>
				</performer>
				<status value="proposed"/>
				<orderedOn value="2012-01-08T10:00:00+00:00"/>
			</ProcedureRequest>
		</resource>
	</entry>
</Bundle>
