{
  "resourceType": "Bundle",
  "id": "9a742ccc-686f-11e7-907b-a6006ad3dba0",
  "meta": {
    "profile": [
      "https://fhir.nhs.uk/StructureDefinition/DCH-Bundle-1"
    ]
  },
  "type": "message",
  "entry": [
    {
      "fullUrl": "urn:uuid:9a743d52-686f-11e7-907b-a6006ad3dba0",
      "resource": {
        "resourceType": "MessageHeader",
        "id": "9a743d52-686f-11e7-907b-a6006ad3dba0",
        "meta": {
          "profile": [
            "https://fhir.nhs.uk/StructureDefinition/DCH-NewbornBloodSpotScreening-MessageHeader-1"
          ]
        },
        "extension": [
          {
            "url": "https://fhir.nhs.uk/StructureDefinition/Extension-DCH-MessageEventType-1",
            "valueCodeableConcept": {
              "coding": [
                {
                  "system": "https://fhir.nhs.uk/DCH-MessageEventType-1",
                  "code": "new",
                  "display": "New event message"
                }
              ]
            }
          }
        ],
        "timestamp": "2012-01-08T09:00:00+00:00",
        "event": {
          "system": "https://fhir.nhs.uk/DCH-ChildHealthEventType-1",
          "code": "Newborn Blood Spot Screening",
          "display": "Newborn Blood Spot Screening"
        },
        "source": {
          "endpoint": "urn:nhs-uk:addressing:ods:RR8"
        },
        "responsible": {
          "reference": "urn:uuid:5ccb6bb7-a7f1-46cc-a5d3-135320765553",
          "display": "Leeds Teaching Hospitals NHS Trust"
        },
        "data": [
          {
            "reference": "urn:uuid:9a7447a2-686f-11e7-907b-a6006ad3dba0"
          },
          {
            "reference": "urn:uuid:9a7440ae-686f-11e7-907b-a6006ad3dba0"
          }
        ]
      }
    },
    {
      "fullUrl": "urn:uuid:5ccb6bb7-a7f1-46cc-a5d3-135320765553",
      "resource": {
        "resourceType": "Organization",
        "id": "5ccb6bb7-a7f1-46cc-a5d3-135320765553",
        "meta": {
          "profile": [
            "https://fhir.hl7.org.uk/StructureDefinition/CareConnect-Organization-1"
          ]
        },
        "identifier": [
          {
            "system": "https://fhir.nhs.uk/Id/ods-organization-code",
            "value": "RR8"
          }
        ],
        "name": "Leeds Teaching Hospitals NHS Trust"
      }
    },
    {
      "fullUrl": "urn:uuid:7368c5fe-bbb4-4e9c-a585-234e06b84e82",
      "resource": {
        "resourceType": "Patient",
        "id": "7368c5fe-bbb4-4e9c-a585-234e06b84e82",
        "meta": {
          "profile": [
            "https://fhir.hl7.org.uk/StructureDefinition/CareConnect-DCH-Patient-1"
          ]
        },
        "identifier": [
          {
            "extension": [
              {
                "url": "https://fhir.hl7.org.uk/StructureDefinition/Extension-CareConnect-NHSNumberVerificationStatus-1",
                "valueCodeableConcept": {
                  "coding": [
                    {
                      "system": "https://fhir.hl7.org.uk/CareConnect-NHSNumberVerificationStatus-1",
                      "code": "01",
                      "display": "Number present and verified"
                    }
                  ]
                }
              }
            ],
            "system": "https://fhir.nhs.uk/Id/nhs-number",
            "value": "5629874536"
          }
        ],
        "name": [
          {
            "use": "usual",
            "family": [
              "SAXTON"
            ],
            "given": [
              "Sarah",
              "Marie"
            ]
          }
        ],
        "gender": "female",
        "birthDate": "2012-01-07",
        "_birthDate": {
          "extension": [
            {
              "url": "http://hl7.org/fhir/StructureDefinition/patient-birthTime",
              "valueDateTime": "2012-01-07T20:12:00+00:00"
            }
          ]
        }
      }
    },
    {
      "fullUrl": "urn:uuid:9a7440ae-686f-11e7-907b-a6006ad3dba0",
      "resource": {
        "resourceType": "QuestionnaireResponse",
        "id": "9a7440ae-686f-11e7-907b-a6006ad3dba0",
        "meta": {
          "profile": [
            "https://fhir.nhs.uk/StructureDefinition/DCH-NewbornBloodSpotScreening-QuestionnaireResponse-1"
          ]
        },
        "identifier": {
          "system": "https://tools.ietf.org/html/rfc4122",
          "value": "9a7440ae-686f-11e7-907b-a6006ad3dba0"
        },
        "status": "completed",
        "subject": {
          "reference": "urn:uuid:7368c5fe-bbb4-4e9c-a585-234e06b84e82",
          "display": "SAXTON, Sarah Marie"
        },
        "encounter": {
          "reference": "urn:uuid:9a7447a2-686f-11e7-907b-a6006ad3dba0"
        },
        "group": {
          "group": [
            {
              "title": "Screening Blood Spot Sample Taken",
              "question": [
                {
                  "text": "Date on which Blood Spot card was completed",
                  "answer": [
                    {
                      "valueDateTime": "2012-01-08T09:00:00+00:00"
                    },
                    {
                      "valueReference": {
                        "reference": "urn:uuid:9a744874-686f-11e7-907b-a6006ad3dba0"
                      }
                    }
                  ]
                },
                {
                  "text": "Name of Professional who took the Blood Spot sample",
                  "answer": [
                    {
                      "valueString": "JONES, Jane"
                    },
                    {
                      "valueReference": {
                        "reference": "urn:uuid:9a744220-686f-11e7-907b-a6006ad3dba0"
                      }
                    }
                  ]
                },
                {
                  "text": "The ODS site code of the organisation associated with the professional performing the Blood Spot sample collection",
                  "answer": [
                    {
                      "valueString": "RR801"
                    },
                    {
                      "valueReference": {
                        "reference": "urn:uuid:9a744676-686f-11e7-907b-a6006ad3dba0"
                      }
                    }
                  ]
                }
              ]
            }
          ]
        }
      }
    },
    {
      "fullUrl": "urn:uuid:9a7447a2-686f-11e7-907b-a6006ad3dba0",
      "resource": {
        "resourceType": "Encounter",
        "id": "9a7447a2-686f-11e7-907b-a6006ad3dba0",
        "meta": {
          "profile": [
            "https://fhir.hl7.org.uk/StructureDefinition/CareConnect-DCH-Encounter-1"
          ]
        },
        "identifier": [
          {
            "system": "https://tools.ietf.org/html/rfc4122",
            "value": "9a7447a2-686f-11e7-907b-a6006ad3dba0"
          }
        ],
        "status": "finished",
        "type": [
          {
            "coding": [
              {
                "system": "https://fhir.nhs.uk/DCH-ChildHealthEncounterType-1",
                "code": "Newborn Blood Spot Sample Taken",
                "display": "Newborn Blood Spot Sample Taken"
              }
            ]
          }
        ],
        "patient": {
          "reference": "urn:uuid:7368c5fe-bbb4-4e9c-a585-234e06b84e82",
          "display": "SAXTON, Sarah Marie"
        },
        "participant": [
          {
            "type": [
              {
                "coding": [
                  {
                    "system": "http://hl7.org/fhir/v3/ParticipationType",
                    "code": "PPRF",
                    "display": "primary performer"
                  }
                ]
              }
            ],
            "individual": {
              "reference": "urn:uuid:9a744220-686f-11e7-907b-a6006ad3dba0",
              "display": "JONES, Jane"
            }
          }
        ],
        "period": {
          "start": "2012-01-08T09:00:00+00:00"
        },
        "location": [
          {
            "location": {
              "reference": "urn:uuid:9a744676-686f-11e7-907b-a6006ad3dba0",
              "display": "Leeds General Infirmary"
            }
          }
        ],
        "serviceProvider": {
          "reference": "urn:uuid:5ccb6bb7-a7f1-46cc-a5d3-135320765553",
          "display": "Leeds Teaching Hospitals NHS Trust"
        }
      }
    },
    {
      "fullUrl": "urn:uuid:9a744874-686f-11e7-907b-a6006ad3dba0",
      "resource": {
        "resourceType": "Procedure",
        "id": "9a744874-686f-11e7-907b-a6006ad3dba0",
        "meta": {
          "profile": [
            "https://fhir.hl7.org.uk/StructureDefinition/CareConnect-DCH-NewbornBloodSpotScreening-Procedure-1"
          ]
        },
        "identifier": [
          {
            "system": "https://tools.ietf.org/html/rfc4122",
            "value": "9a744874-686f-11e7-907b-a6006ad3dba0"
          }
        ],
        "subject": {
          "reference": "urn:uuid:7368c5fe-bbb4-4e9c-a585-234e06b84e82",
          "display": "SAXTON, Sarah Marie"
        },
        "status": "completed",
        "code": {
          "coding": [
            {
              "system": "http://snomed.info/sct",
              "code": "428447008",
              "display": "Newborn blood spot screening"
            }
          ]
        },
        "performer": [
          {
            "actor": {
              "reference": "urn:uuid:9a744220-686f-11e7-907b-a6006ad3dba0",
              "display": "JONES, Jane"
            }
          }
        ],
        "performedDateTime": "2012-01-08T09:00:00+00:00",
        "encounter": {
          "reference": "urn:uuid:9a7447a2-686f-11e7-907b-a6006ad3dba0"
        },
        "location": {
          "reference": "urn:uuid:9a744676-686f-11e7-907b-a6006ad3dba0",
          "display": "Leeds General Infirmary"
        }
      }
    },
    {
      "fullUrl": "urn:uuid:9a744220-686f-11e7-907b-a6006ad3dba0",
      "resource": {
        "resourceType": "Practitioner",
        "id": "9a744220-686f-11e7-907b-a6006ad3dba0",
        "meta": {
          "profile": [
            "https://fhir.hl7.org.uk/StructureDefinition/CareConnect-Practitioner-1"
          ]
        },
        "identifier": [
          {
            "system": "https://fhir.nhs.uk/Id/sds-user-id",
            "value": "C24682468"
          },
          {
            "system": "https://fhir.nhs.uk/Id/sds-role-profile-id",
            "value": "AB1233"
          }
        ],
        "name": {
          "family": [
            "JONES"
          ],
          "given": [
            "Jane"
          ]
        },
        "practitionerRole": [
          {
            "managingOrganization": {
              "reference": "urn:uuid:5ccb6bb7-a7f1-46cc-a5d3-135320765553",
              "display": "Leeds Teaching Hospitals NHS Trust"
            },
            "role": {
              "coding": [
                {
                  "system": "https://fhir.hl7.org.uk/CareConnect-SDSJobRoleName-1",
                  "code": "R0620",
                  "display": "Staff Nurse"
                }
              ]
            }
          }
        ]
      }
    },
    {
      "fullUrl": "urn:uuid:9a744676-686f-11e7-907b-a6006ad3dba0",
      "resource": {
        "resourceType": "Location",
        "id": "9a744676-686f-11e7-907b-a6006ad3dba0",
        "meta": {
          "profile": [
            "https://fhir.hl7.org.uk/StructureDefinition/CareConnect-Location-1"
          ]
        },
        "identifier": [
          {
            "system": "https://fhir.nhs.uk/Id/ods-site-code",
            "value": "RR801"
          }
        ],
        "name": "Leeds General Infirmary",
        "type": {
          "coding": [
            {
              "system": "http://hl7.org/fhir/ValueSet/v3-ServiceDeliveryLocationRoleType",
              "code": "HOSP",
              "display": "Hospital"
            }
          ]
        },
        "managingOrganization": {
          "reference": "urn:uuid:5ccb6bb7-a7f1-46cc-a5d3-135320765553",
          "display": "Leeds Teaching Hospitals NHS Trust"
        }
      }
    }
  ]
}