<?xml version="1.0" encoding="UTF-8"?>
<!--This example message is provided for illustrative purposes only. It has had no clinical validation. Where there are conflicts with the written message specification or schema, the specification or schema shall be considered to take precedence-->
<Bundle xmlns="http://hl7.org/fhir" xmlns:xsi="http://www.w3.org/2001/XMLSchema-instance" xsi:schemaLocation="http://hl7.org/fhir file:///C:/stu3/bundle.xsd">
	<id value="a8ca980c-72aa-11e7-8cf7-a6006ad3dba0"/>
	<meta>
		<profile value="https://fhir.nhs.uk/StructureDefinition/DCH-Bundle-1"/>
	</meta>
	<type value="message"/>
<!--Message Header-->
		<entry>
		<fullUrl value="urn:uuid:85c8a1c5-a8a1-41c9-bb99-20956fa66218"/>
		<resource>
			<MessageHeader>
				<id value="85c8a1c5-a8a1-41c9-bb99-20956fa66218"/>
				<meta>
					<profile value="https://fhir.nhs.uk/STU3/StructureDefinition/DCH-MessageHeader-1"/>
				</meta>
				<extension url="https://fhir.nhs.uk/STU3/StructureDefinition/Extension-DCH-MessageEventType-1">
					<valueCodeableConcept>
						<coding>
							<system value="https://fhir.nhs.uk/STU3/CodeSystem/DCH-MessageEventType-1"/>
							<code value="new"/>
							<display value="New event message"/>
						</coding>
					</valueCodeableConcept>
				</extension>
				<event>
					<system value="https://fhir.nhs.uk/STU3/CodeSystem/DCH-ChildHealthEventType-1"/>
					<code value="Allergies and Adverse Reactions"/>
					<display value="Allergies and Adverse Reactions"/>
				</event>
				<timestamp value="2017-11-01T15:00:00+00:00"/>
				<source>
					<endpoint value="urn:nhs-uk:addressing:ods:X26"/>
				</source>
				<responsible>
					<reference value="urn:uuid:3ff6d789-af64-4d9c-aa1d-0087d29e9e1c"/>
					<display value="NHS DIGITAL"/>
				</responsible>
				<focus>
					<reference value="urn:uuid:12779557-9033-4213-876f-69a670cdf35d"/>
				</focus>
			</MessageHeader>
		</resource>
	</entry>
	<!--Responsible org-->
	<entry>
		<fullUrl value="urn:uuid:e3177167-40fc-4f1a-80f2-a2f17f18fde7"/>
		<resource>
			<Organization>
				<id value="e3177167-40fc-4f1a-80f2-a2f17f18fde7"/>
				<meta>
					<profile value="https://fhir.hl7.org.uk/StructureDefinition/CareConnect-DCH-Organization-1"/>
				</meta>
				<identifier>
					<system value="https://fhir.nhs.uk/Id/ods-organization-code"/>
					<value value="A83627"/>
				</identifier>
				<name value="SILVERDALE FAMILY PRACTICE"/>
			</Organization>
		</resource>
	</entry>
	<!--Healthcare service used e.g GP, trust, etc..-->
	<entry>
		<fullUrl value="urn:uuid:5a293df7-b22f-41b6-8bf1-44248ea59edb"/>
		<resource>
			<HealthcareService>
				<id value="5a293df7-b22f-41b6-8bf1-44248ea59edb"/>
				<meta>
					<profile value="https://fhir.nhs.uk/StructureDefinition/DCH-HealthcareService-1"/>
				</meta>
				<identifier>
					<system value="https://tools.ietf.org/html/rfc4122"/>
					<value value="b97f051a-875b-411c-87cd-fd3911776f29"/>
				</identifier>
				<providedBy>
					<reference value="urn:uuid:e3177167-40fc-4f1a-80f2-a2f17f18fde7"/>
					<display value="NHS Trust Site MATERNITY"/>
				</providedBy>	
				<specialty>
					<coding>
						<system value="https://fhir.nhs.uk/STU3/CodeSystem/DCH-Specialty-1"/>
						<code value="560"/>
						<display value="MIDWIFE EPISODE"/>
					</coding>
				</specialty>			
				<location>
					<reference value="urn:uuid:e3177167-40fc-4f1a-80f2-a2f17f18fde7"/>
					<display value="NHS Trust Site MATERNITY"/>
				</location>
			</HealthcareService>
		</resource>
	</entry>
	<!--Who the patient is-->
	<entry>
		<fullUrl value="urn:uuid:7368c5fe-bbb4-4e9c-a585-234e06b84e82"/>
		<resource>
			<Patient>
				<id value="7368c5fe-bbb4-4e9c-a585-234e06b84e82"/>
				<meta>
					<profile value="https://fhir.nhs.uk/StructureDefinition/CareConnect-DCH-Patient-1"/>
				</meta>
				<identifier>
					<extension url="https://fhir.hl7.org.uk/StructureDefinition/Extension-CareConnect-NHSNumberVerificationStatus-1">
						<valueCodeableConcept>
							<coding>
								<system value="https://fhir.hl7.org.uk/CareConnect-NHSNumberVerificationStatus-1"/>
								<code value="01"/>
								<display value="Number present and verified"/>
							</coding>
						</valueCodeableConcept>
					</extension>
					<system value="https://fhir.nhs.uk/Id/nhs-number"/>
					<value value="6101231234"/>
				</identifier>
				<name>
					<use value="usual"/>
					<family value="Dawkins"/>
					<given value="Jack"/>
				</name>
				<gender value="female"/>
				<birthDate value="1980-01-07"/>
			</Patient>
		</resource>
	</entry>
	<!--Feeding Status-->
	<entry>
		<fullUrl value="urn:uuid:7071ad47-fa74-4ec6-872a-5b0eded5f88e"/>
		<resource>
			<QuestionnaireResponse>
			<id value="7071ad47-fa74-4ec6-872a-5b0eded5f88e"/>
			<meta>
				<profile value="https://fhir.nhs.uk/STU3/StructureDefinition/DCH-EducationalHistory-QuestionnaireResponse-1"/>
			</meta>
			<identifier>
				<system value="urn:ietf:rfc:3986"/>
				<value value="1c2f0e80-1a84-4b42-906d-27628616978b"/>
			</identifier>
			<status value="completed"/>
			<subject>
				<reference value="7368c5fe-bbb4-4e9c-a585-234e06b84e82"/>
			</subject>
			<context>
				<reference value="a8ca9fe6-72aa-11e7-8cf7-a6006ad3dba0"/>
			</context>
			<item>
				<linkId value="firstMilkFeed"/>
				<text value="Parental Consent"/>
				<answer>
					<valueCoding>
						<system value="http://snomed.info/sct"/>
						<code value="New code needed"/>
						<display value="Maternal Breast Milk"/>
					</valueCoding>
				</answer>
			</item>
			<item>
				<linkId value="feedingStatus"/>
				<text value="Feeding Status"/>
				<answer>
					<valueCoding>
						<system value="http://snomed.info/sct"/>
						<code value="New code needed"/>
						<display value="Exclusively breast milk feeding"/>
					</valueCoding>
				</answer>
			</item>
			<item>
				<linkId value="feedingMethod"/>
				<text value="Feeding Method"/>
				<answer>
					<valueCoding>
						<system value="http://snomed.info/sct"/>
						<code value="169741004"/>
						<display value="Breast fed"/>
					</valueCoding>
				</answer>
			</item>
			<item>
				<linkId value="introductionOfSolids"/>
				<text value="Introduction Of Solids"/>
				<answer>
					<valueDate value="2018-03-06"/>
				</answer>
			</item>
			<item>
				<linkId value="exclusiveBreastfeedingDuration"/>
				<text value="Exclusive Breast Feeding Duration"/>
				<answer>
					<valueDate value="2018-02-01"/>
				</answer>
			</item>
			<item>
				<linkId value="partialBreastfeedingDuration"/>
				<text value="Partial BreastFfeeding Duration"/>
				<answer>
					<valueDate value="2018-03-01"/>
				</answer>
			</item>
			</QuestionnaireResponse>
		</resource>
	</entry>
	<!--Encounter details-->
	<entry>
		<fullUrl value="urn:uuid:6f616c92-afad-4d11-94b6-eb1f9fbf75c1"/>
		<resource>
			<Encounter>
				<id value="6f616c92-afad-4d11-94b6-eb1f9fbf75c1"/>
				<meta>
					<profile value="https://fhir.nhs.uk/StructureDefinition/CareConnect-DCH-Encounter-1"/>
				</meta>
				<identifier>
					<system value="https://tools.ietf.org/html/rfc4122"/>
					<value value="64cfd953-06d9-4d47-b69d-7af055d3e5d7"/>
				</identifier>
				<status value="finished"/>
				<type>
					<coding>
						<system value="https://fhir.nhs.uk/STU3/CodeSystem/DCH-ChildHealthEventType-1"/>
						<code value="Feeding Status"/>
						<display value="Feeding Status"/>
					</coding>
				</type>
				<subject>
					<reference value="urn:uuid:7368c5fe-bbb4-4e9c-a585-234e06b84e82"/>
					<display value="DAWKINS, Jack"/>
				</subject>
				<participant>
					<type>
						<coding>
							<system value="http://hl7.org/fhir/v3/ParticipationType"/>
							<code value="PPRF"/>
							<display value="primary performer"/>
						</coding>
					</type>
					<individual>
						<reference value="urn:uuid:e9dbf8e8-5bdc-11e7-907b-a6006ad3dba0"/>
						<display value="JONES, Bob (Dr.)"/>
					</individual>
				</participant>
				<period>
					<start value="2018-01-29T09:00:00"/>
				</period>
				<location>
					<location>
						<reference value="urn:uuid:e3177167-40fc-4f1a-80f2-a2f17f18fde7"/>
						<display value="NHS Trust Site MATERNITY"/>
					</location>
				</location>
				<serviceProvider>
					<reference value="urn:uuid:e3177167-40fc-4f1a-80f2-a2f17f18fde7"/>
					<display value="NHS Trust Site MATERNITY"/>
				</serviceProvider>
			</Encounter>
		</resource>
	</entry>
	<!--Practitioner from Encounter-->
	<entry>
		<fullUrl value="urn:uuid:e9dbf8e8-5bdc-11e7-907b-a6006ad3dba0"/>
		<resource>
			<Practitioner>
				<id value="e9dbf8e8-5bdc-11e7-907b-a6006ad3dba0"/>
				<meta>
					<profile value="https://fhir.hl7.org.uk/StructureDefinition/CareConnect-DCH-Practitioner-1"/>
				</meta>
				<identifier>
					<system value="https://fhir.nhs.uk/Id/sds-role-profile-id"/>
					<value value="PT2468"/>
				</identifier>
				<name>
					<family value="Jones"/>
					<given value="Bob"/>
					<prefix value="Dr."/>
				</name>
			</Practitioner>
		</resource>
	</entry>
	<!--Location where event took place-->
	<entry>
		<fullUrl value="urn:uuid:e3177167-40fc-4f1a-80f2-a2f17f18fde7"/>
		<resource>
			<Location>
				<id value="e3177167-40fc-4f1a-80f2-a2f17f18fde7"/>
				<meta>
					<profile value="https://fhir.hl7.org.uk/StructureDefinition/CareConnect-DCH-Location-1"/>
				</meta>
				<identifier>
					<system value="https://fhir.nhs.uk/Id/ods-site-code"/>
					<value value="RXPAN"/>
				</identifier>
				<name value="NHS Trust Site MATERNITY"/>
				<managingOrganization>
					<reference value="urn:uuid:b39c20cf-b3ce-46e0-91f2-d61b623dc490"/>
					<display value="NHS Trust COUNTY DURHAM AND DARLINGTON NHS FOUNDATION TRUST"/>
				</managingOrganization>
			</Location>
		</resource>
	</entry>
	<!--Managing Org (CCG)-->
	<entry>
		<fullUrl value="urn:uuid:b39c20cf-b3ce-46e0-91f2-d61b623dc490"/>
		<resource>
			<Organization>
				<id value="b39c20cf-b3ce-46e0-91f2-d61b623dc490"/>
				<meta>
					<profile value="https://fhir.hl7.org.uk/StructureDefinition/CareConnect-DCH-Organization-1"/>
				</meta>
				<identifier>
					<system value="https://fhir.nhs.uk/Id/ods-organization-code"/>
					<value value="RXP"/>
				</identifier>
				<name value="NHS Trust COUNTY DURHAM AND DARLINGTON NHS FOUNDATION TRUST"/>
			</Organization>
		</resource>
	</entry>
</Bundle>
