<?xml version="1.0" encoding="UTF-8"?>
<Bundle xmlns="http://hl7.org/fhir" xmlns:xsi="http://www.w3.org/2001/XMLSchema-instance" xsi:schemaLocation="http://hl7.org/fhir ../../schemas/bundle.xsd">
	<id value="9a742ccc-686f-11e7-907b-a6006ad3dba0"/>
	<meta>
		<profile value="https://fhir.nhs.uk/StructureDefinition/DCH-Bundle-1"/>
	</meta>
	<type value="message"/>
	<entry>
		<fullUrl value="urn:uuid:9a743d52-686f-11e7-907b-a6006ad3dba0"/>
		<resource>
			<MessageHeader>
				<id value="9a743d52-686f-11e7-907b-a6006ad3dba0"/>
				<meta>
					<profile value="https://fhir.nhs.uk/StructureDefinition/DCH-NewbornBloodSpotScreening-MessageHeader-1"/>
				</meta>
				<extension url="https://fhir.nhs.uk/StructureDefinition/Extension-DCH-MessageEventType-1">
					<valueCodeableConcept>
						<coding>
							<system value="https://fhir.nhs.uk/DCH-MessageEventType-1"/>
							<code value="new"/>
							<display value="New event message"/>
						</coding>
					</valueCodeableConcept>
				</extension>
				<timestamp value="2012-01-08T09:00:00+00:00"/>
				<event>
					<system value="https://fhir.nhs.uk/DCH-ChildHealthEventType-1"/>
					<code value="Newborn Blood Spot Screening"/>
					<display value="Newborn Blood Spot Screening"/>
				</event>
				<source>
					<endpoint value="urn:nhs-uk:addressing:ods:RR8"/>
				</source>
				<responsible>
					<reference value="urn:uuid:5ccb6bb7-a7f1-46cc-a5d3-135320765553"/>
					<display value="Leeds Teaching Hospitals NHS Trust"/>
				</responsible>
				<data>
					<reference value="urn:uuid:9a7447a2-686f-11e7-907b-a6006ad3dba0"/>
				</data>
				<data>
					<reference value="urn:uuid:9a7440ae-686f-11e7-907b-a6006ad3dba0"/>
				</data>
			</MessageHeader>
		</resource>
	</entry>
	<entry>
		<fullUrl value="urn:uuid:5ccb6bb7-a7f1-46cc-a5d3-135320765553"/>
		<resource>
			<Organization>
				<id value="5ccb6bb7-a7f1-46cc-a5d3-135320765553"/>
				<meta>
					<profile value="https://fhir.hl7.org.uk/StructureDefinition/CareConnect-DCH-Organization-1"/>
				</meta>
				<identifier>
					<system value="https://fhir.nhs.uk/Id/ods-organization-code"/>
					<value value="RR8"/>
				</identifier>
				<name value="Leeds Teaching Hospitals NHS Trust"/>
			</Organization>
		</resource>
	</entry>
	<entry>
		<fullUrl value="urn:uuid:7368c5fe-bbb4-4e9c-a585-234e06b84e82"/>
		<resource>
			<Patient>
				<id value="7368c5fe-bbb4-4e9c-a585-234e06b84e82"/>
				<meta>
					<profile value="https://fhir.hl7.org.uk/StructureDefinition/CareConnect-DCH-Patient-1"/>
				</meta>
				<identifier>
					<extension url="https://fhir.hl7.org.uk/StructureDefinition/Extension-CareConnect-NHSNumberVerificationStatus-1">
						<valueCodeableConcept>
							<coding>
								<system value="https://fhir.hl7.org.uk/CareConnect-NHSNumberVerificationStatus-1"/>
								<code value="01"/>
								<display value="Number present and verified"/>
							</coding>
						</valueCodeableConcept>
					</extension>
					<system value="https://fhir.nhs.uk/Id/nhs-number"/>
					<value value="5629874536"/>
				</identifier>
				<name>
					<use value="usual"/>
					<family value="SAXTON"/>
					<given value="Sarah"/>
					<given value="Marie"/>
				</name>
				<gender value="female"/>
				<birthDate value="2012-01-07">
					<extension url="http://hl7.org/fhir/StructureDefinition/patient-birthTime">
						<valueDateTime value="2012-01-07T20:12:00+00:00"/>
					</extension>
				</birthDate>
			</Patient>
		</resource>
	</entry>
	<entry>
		<fullUrl value="urn:uuid:9a7440ae-686f-11e7-907b-a6006ad3dba0"/>
		<resource>
			<QuestionnaireResponse>
				<id value="9a7440ae-686f-11e7-907b-a6006ad3dba0"/>
				<meta>
					<profile value="https://fhir.nhs.uk/StructureDefinition/DCH-NewbornBloodSpotScreening-QuestionnaireResponse-1"/>
				</meta>
				<identifier>
					<system value="https://tools.ietf.org/html/rfc4122"/>
					<value value="9a7440ae-686f-11e7-907b-a6006ad3dba0"/>
				</identifier>
				<status value="completed"/>
				<subject>
					<reference value="urn:uuid:7368c5fe-bbb4-4e9c-a585-234e06b84e82"/>
					<display value="SAXTON, Sarah Marie"/>
				</subject>
				<encounter>
					<reference value="urn:uuid:9a7447a2-686f-11e7-907b-a6006ad3dba0"/>
				</encounter>
				<group>
					<group>
						<title value="Screening Blood Spot Sample Taken"/>
						<question>
							<text value="Date on which Blood Spot card was completed"/>
							<answer>
								<valueDateTime value="2012-01-08T09:00:00+00:00"/>
							</answer>
							<answer>
								<valueReference>
									<reference value="urn:uuid:9a744874-686f-11e7-907b-a6006ad3dba0"/>
								</valueReference>
							</answer>
						</question>
						<question>
							<text value="Name of Professional who took the Blood Spot sample"/>
							<answer>
								<valueString value="JONES, Jane"/>
							</answer>
							<answer>
								<valueReference>
									<reference value="urn:uuid:9a744220-686f-11e7-907b-a6006ad3dba0"/>
								</valueReference>
							</answer>
						</question>
						<question>
							<text value="The ODS site code of the organisation associated with the professional performing the Blood Spot sample collection"/>
							<answer>
								<valueString value="RR801"/>
							</answer>
							<answer>
								<valueReference>
									<reference value="urn:uuid:9a744676-686f-11e7-907b-a6006ad3dba0"/>
								</valueReference>
							</answer>
						</question>
					</group>
				</group>
			</QuestionnaireResponse>
		</resource>
	</entry>
	<entry>
		<fullUrl value="urn:uuid:9a7447a2-686f-11e7-907b-a6006ad3dba0"/>
		<resource>
			<Encounter>
				<id value="9a7447a2-686f-11e7-907b-a6006ad3dba0"/>
				<meta>
					<profile value="https://fhir.hl7.org.uk/StructureDefinition/CareConnect-DCH-Encounter-1"/>
				</meta>
				<identifier>
					<system value="https://tools.ietf.org/html/rfc4122"/>
					<value value="9a7447a2-686f-11e7-907b-a6006ad3dba0"/>
				</identifier>
				<status value="finished"/>
				<type>
					<coding>
						<system value="https://fhir.nhs.uk/DCH-ChildHealthEncounterType-1"/>
						<code value="Newborn Blood Spot Sample Taken"/>
						<display value="Newborn Blood Spot Sample Taken"/>
					</coding>
				</type>
				<patient>
					<reference value="urn:uuid:7368c5fe-bbb4-4e9c-a585-234e06b84e82"/>
					<display value="SAXTON, Sarah Marie"/>
				</patient>
				<participant>
					<type>
						<coding>
							<system value="http://hl7.org/fhir/v3/ParticipationType"/>
							<code value="PPRF"/>
							<display value="primary performer"/>
						</coding>
					</type>
					<individual>
						<reference value="urn:uuid:9a744220-686f-11e7-907b-a6006ad3dba0"/>
						<display value="JONES, Jane"/>
					</individual>
				</participant>
				<period>
					<start value="2012-01-08T09:00:00+00:00"/>
				</period>
				<location>
					<location>
						<reference value="urn:uuid:9a744676-686f-11e7-907b-a6006ad3dba0"/>
						<display value="Leeds General Infirmary"/>
					</location>
				</location>
				<serviceProvider>
					<reference value="urn:uuid:5ccb6bb7-a7f1-46cc-a5d3-135320765553"/>
					<display value="Leeds Teaching Hospitals NHS Trust"/>
				</serviceProvider>
			</Encounter>
		</resource>
	</entry>
	<entry>
		<fullUrl value="urn:uuid:9a744874-686f-11e7-907b-a6006ad3dba0"/>
		<resource>
			<Procedure>
				<id value="9a744874-686f-11e7-907b-a6006ad3dba0"/>
				<meta>
					<profile value="https://fhir.hl7.org.uk/StructureDefinition/CareConnect-DCH-NewbornBloodSpotScreening-Procedure-1"/>
				</meta>
				<identifier>
					<system value="https://tools.ietf.org/html/rfc4122"/>
					<value value="9a744874-686f-11e7-907b-a6006ad3dba0"/>
				</identifier>
				<subject>
					<reference value="urn:uuid:7368c5fe-bbb4-4e9c-a585-234e06b84e82"/>
					<display value="SAXTON, Sarah Marie"/>
				</subject>
				<status value="completed"/>
				<code>
					<coding>
						<system value="http://snomed.info/sct"/>
						<code value="428447008"/>
						<display value="Newborn blood spot screening"/>
					</coding>
				</code>
				<performer>
					<actor>
						<reference value="urn:uuid:9a744220-686f-11e7-907b-a6006ad3dba0"/>
						<display value="JONES, Jane"/>
					</actor>
				</performer>
				<performedDateTime value="2012-01-08T09:00:00+00:00"/>
				<encounter>
					<reference value="urn:uuid:9a7447a2-686f-11e7-907b-a6006ad3dba0"/>
				</encounter>
				<location>
					<reference value="urn:uuid:9a744676-686f-11e7-907b-a6006ad3dba0"/>
					<display value="Leeds General Infirmary"/>
				</location>
			</Procedure>
		</resource>
	</entry>
	<entry>
		<fullUrl value="urn:uuid:9a744220-686f-11e7-907b-a6006ad3dba0"/>
		<resource>
			<Practitioner>
				<id value="9a744220-686f-11e7-907b-a6006ad3dba0"/>
				<meta>
					<profile value="https://fhir.hl7.org.uk/StructureDefinition/CareConnect-DCH-Practitioner-1"/>
				</meta>
				<identifier>
					<system value="https://fhir.nhs.uk/Id/sds-user-id"/>
					<value value="C24682468"/>
				</identifier>
				<identifier>
					<system value="https://fhir.nhs.uk/Id/sds-role-profile-id"/>
					<value value="AB1233"/>
				</identifier>
				<name>
					<family value="JONES"/>
					<given value="Jane"/>
				</name>
				<practitionerRole>
					<managingOrganization>
						<reference value="urn:uuid:5ccb6bb7-a7f1-46cc-a5d3-135320765553"/>
						<display value="Leeds Teaching Hospitals NHS Trust"/>
					</managingOrganization>
					<role>
						<coding>
							<system value="https://fhir.hl7.org.uk/CareConnect-SDSJobRoleName-1"/>
							<code value="R0620"/>
							<display value="Staff Nurse"/>
						</coding>
					</role>
				</practitionerRole>
			</Practitioner>
		</resource>
	</entry>
	<entry>
		<fullUrl value="urn:uuid:9a744676-686f-11e7-907b-a6006ad3dba0"/>
		<resource>
			<Location>
				<id value="9a744676-686f-11e7-907b-a6006ad3dba0"/>
				<meta>
					<profile value="https://fhir.hl7.org.uk/StructureDefinition/CareConnect-DCH-Location-1"/>
				</meta>
				<identifier>
					<system value="https://fhir.nhs.uk/Id/ods-site-code"/>
					<value value="RR801"/>
				</identifier>
				<name value="Leeds General Infirmary"/>
				<type>
					<coding>
						<system value="http://hl7.org/fhir/ValueSet/v3-ServiceDeliveryLocationRoleType"/>
						<code value="HOSP"/>
						<display value="Hospital"/>
					</coding>
				</type>
				<managingOrganization>
					<reference value="urn:uuid:5ccb6bb7-a7f1-46cc-a5d3-135320765553"/>
					<display value="Leeds Teaching Hospitals NHS Trust"/>
				</managingOrganization>
			</Location>
		</resource>
	</entry>
</Bundle>
