<?xml version="1.0" encoding="UTF-8"?>
<Bundle xmlns="http://hl7.org/fhir" xmlns:xsi="http://www.w3.org/2001/XMLSchema-instance" xsi:schemaLocation="http://hl7.org/fhir ../../Schemas/bundle.xsd">
	<id value="9a746c3c-686f-11e7-907b-a6006ad3dba0"/>
	<meta>
		<profile value="https://fhir.nhs.uk/StructureDefinition/DCH-Bundle-1"/>
	</meta>
	<type value="message"/>
	<entry>
		<fullUrl value="urn:uuid:9a746d04-686f-11e7-907b-a6006ad3dba0"/>
		<resource>
			<MessageHeader>
				<id value="9a746d04-686f-11e7-907b-a6006ad3dba0"/>
				<meta>
					<profile value="https://fhir.nhs.uk/StructureDefinition/DCH-NewbornBloodSpotScreening-MessageHeader-1"/>
				</meta>
				<extension url="https://fhir.nhs.uk/StructureDefinition/Extension-DCH-MessageEventType-1">
					<valueCodeableConcept>
						<coding>
							<system value="https://fhir.nhs.uk/DCH-MessageEventType-1"/>
							<code value="new"/>
							<display value="New event message"/>
						</coding>
					</valueCodeableConcept>
				</extension>
				<timestamp value="2012-01-10T09:00:00+00:00"/>
				<event>
					<system value="https://fhir.nhs.uk/DCH-ChildHealthEventType-1"/>
					<code value="Newborn Blood Spot Screening"/>
					<display value="Newborn Blood Spot Screening"/>
				</event>
				<source>
					<endpoint value="urn:nhs-uk:addressing:ods:695N0"/>
				</source>
				<responsible>
						<reference value="urn:uuid:9a74549a-686f-11e7-907b-a6006ad3dba0"/>
						<display value="Leeds General Infirmary Laboratory"/>
				</responsible>
				<data>
					<reference value="urn:uuid:9a746f52-686f-11e7-907b-a6006ad3dba0"/>
				</data>
				<data>
					<reference value="urn:uuid:9a74701a-686f-11e7-907b-a6006ad3dba0"/>
				</data>
			</MessageHeader>
		</resource>
	</entry>
	<entry>
		<fullUrl value="urn:uuid:9a74549a-686f-11e7-907b-a6006ad3dba0"/>
		<resource>
			<Organization>
				<id value="9a74549a-686f-11e7-907b-a6006ad3dba0"/>
				<meta>
					<profile value="https://fhir.nhs.uk/StructureDefinition/CareConnect-DCH-Organization-1"/>
				</meta>
				<identifier>
					<system value="https://fhir.nhs.uk/Id/ods-organization-code"/>
					<value value="695N0"/>
				</identifier>
				<name value="Leeds General Infirmary Laboratory"/>
			</Organization>
		</resource>
	</entry>
	<entry>
		<fullUrl value="urn:uuid:7368c5fe-bbb4-4e9c-a585-234e06b84e82"/>
		<resource>
			<Patient>
				<id value="7368c5fe-bbb4-4e9c-a585-234e06b84e82"/>
				<meta>
					<profile value="https://fhir.nhs.uk/StructureDefinition/CareConnect-DCH-Patient-1"/>
				</meta>
				<identifier>
					<extension url="https://fhir.hl7.org.uk/StructureDefinition/Extension-CareConnect-NHSNumberVerificationStatus-1">
						<valueCodeableConcept>
							<coding>
								<system value="https://fhir.hl7.org.uk/CareConnect-NHSNumberVerificationStatus-1"/>
								<code value="01"/>
								<display value="Number present and verified"/>
							</coding>
						</valueCodeableConcept>
					</extension>
					<system value="https://fhir.nhs.uk/Id/nhs-number"/>
					<value value="5629874536"/>
				</identifier>
				<name>
					<use value="usual"/>
					<family value="SAXTON"/>
					<given value="Sarah"/>
					<given value="Marie"/>
				</name>
				<gender value="female"/>
				<birthDate value="2012-01-07">
					<extension url="http://hl7.org/fhir/StructureDefinition/patient-birthTime">
						<valueDateTime value="2012-01-07T20:12:00+00:00"/>
					</extension>
				</birthDate>
			</Patient>
		</resource>
	</entry>
	<entry>
		<fullUrl value="urn:uuid:9a74701a-686f-11e7-907b-a6006ad3dba0"/>
		<resource>
			<QuestionnaireResponse>
				<id value="9a74701a-686f-11e7-907b-a6006ad3dba0"/>
				<meta>
					<profile value="https://fhir.nhs.uk/StructureDefinition/DCH-NewbornBloodSpotScreening-QuestionnaireResponse-1"/>
				</meta>
				<identifier>
					<system value="https://tools.ietf.org/html/rfc4122"/>
					<value value="9a74701a-686f-11e7-907b-a6006ad3dba0"/>
				</identifier>
				<status value="completed"/>
				<subject>
					<reference value="urn:uuid:7368c5fe-bbb4-4e9c-a585-234e06b84e82"/>
					<display value="SAXTON, Sarah Marie"/>
				</subject>
				<group>
					<group>
						<title value="Screening Blood Spot Test Outcome"/>
						<question>
							<text value="The date that a Blood Spot Screening Test Result was received by a Health Care Provider from the testing laboratory"/>
							<answer>
								<valueDateTime value="2012-01-10T09:00:00+00:00"/>
							</answer>
							<answer>
								<valueReference>
									<reference value="urn:uuid:9a746b4c-686f-11e7-907b-a6006ad3dba0"/>
								</valueReference>
							</answer>
						</question>
						<question>
							<text value="Screening outcome for Phenylketonuria (PKU)"/>
							<answer>
								<valueCoding>
									<system value="https://fhir.nhs.uk/DCH-BloodSpotScreeningOutcome-1"/>
									<code value="04"/>
									<display value="(Condition screened for) Not suspected"/>
								</valueCoding>
							</answer>
							<answer>
								<valueReference>
									<reference value="urn:uuid:9a745cb0-686f-11e7-907b-a6006ad3dba0"/>
								</valueReference>
							</answer>
						</question>
						<question>
							<text value="Screening outcome for Sickle Cell Disease (SCD)"/>
							<answer>
								<valueCoding>
									<system value="https://fhir.nhs.uk/DCH-BloodSpotScreeningOutcome-1"/>
									<code value="04"/>
									<display value="(Condition screened for) Not suspected"/>
								</valueCoding>
							</answer>
							<answer>
								<valueReference>
									<reference value="urn:uuid:9a7467c8-686f-11e7-907b-a6006ad3dba0"/>
								</valueReference>
							</answer>
						</question>
						<question>
							<text value="Screening outcome for Cystic Fibrosis (CF)"/>
							<answer>
								<valueCoding>
									<system value="https://fhir.nhs.uk/DCH-BloodSpotScreeningOutcome-1"/>
									<code value="04"/>
									<display value="(Condition screened for) Not suspected"/>
								</valueCoding>
							</answer>
							<answer>
								<valueReference>
									<reference value="urn:uuid:9a74670a-686f-11e7-907b-a6006ad3dba0"/>
								</valueReference>
							</answer>
						</question>
						<question>
							<text value="Screening outcome for Congenital hypothyroidism (CHT)"/>
							<answer>
								<valueCoding>
									<system value="https://fhir.nhs.uk/DCH-BloodSpotScreeningOutcome-1"/>
									<code value="04"/>
									<display value="(Condition screened for) Not suspected"/>
								</valueCoding>
							</answer>
							<answer>
								<valueReference>
									<reference value="urn:uuid:9a74664c-686f-11e7-907b-a6006ad3dba0"/>
								</valueReference>
							</answer>
						</question>
						<question>
							<text value="Screening outcome for Medium-chain acyl-COA dehydrogenase deficiency (MCADD)"/>
							<answer>
								<valueCoding>
									<system value="https://fhir.nhs.uk/DCH-BloodSpotScreeningOutcome-1"/>
									<code value="04"/>
									<display value="(Condition screened for) Not suspected"/>
								</valueCoding>
							</answer>
							<answer>
								<valueReference>
									<reference value="urn:uuid:9a745ecc-686f-11e7-907b-a6006ad3dba0"/>
								</valueReference>
							</answer>
						</question>
						<question>
							<text value="Screening outcome for Homocystinuria (pyroxidine unresponsive) (HCU)"/>
							<answer>
								<valueCoding>
									<system value="https://fhir.nhs.uk/DCH-BloodSpotScreeningOutcome-1"/>
									<code value="04"/>
									<display value="(Condition screened for) Not suspected"/>
								</valueCoding>
							</answer>
							<answer>
								<valueReference>
									<reference value="urn:uuid:9a7464c6-686f-11e7-907b-a6006ad3dba0"/>
								</valueReference>
							</answer>
						</question>
						<question>
							<text value="Screening outcome for Maple syrup urine disease (MSUD)"/>
							<answer>
								<valueCoding>
									<system value="https://fhir.nhs.uk/DCH-BloodSpotScreeningOutcome-1"/>
									<code value="04"/>
									<display value="(Condition screened for) Not suspected"/>
								</valueCoding>
							</answer>
							<answer>
								<valueReference>
									<reference value="urn:uuid:9a745df0-686f-11e7-907b-a6006ad3dba0"/>
								</valueReference>
							</answer>
						</question>
						<question>
							<text value="Screening outcome for Glutaric aciduria type 1 (GA1)"/>
							<answer>
								<valueCoding>
									<system value="https://fhir.nhs.uk/DCH-BloodSpotScreeningOutcome-1"/>
									<code value="04"/>
									<display value="(Condition screened for) Not suspected"/>
								</valueCoding>
							</answer>
							<answer>
								<valueReference>
									<reference value="urn:uuid:9a74658e-686f-11e7-907b-a6006ad3dba0"/>
								</valueReference>
							</answer>
						</question>
						<question>
							<text value="Screening outcome for Isovaleric acidaemia (IVA)"/>
							<answer>
								<valueCoding>
									<system value="https://fhir.nhs.uk/DCH-BloodSpotScreeningOutcome-1"/>
									<code value="04"/>
									<display value="(Condition screened for) Not suspected"/>
								</valueCoding>
							</answer>
							<answer>
								<valueReference>
									<reference value="urn:uuid:9a7463ae-686f-11e7-907b-a6006ad3dba0"/>
								</valueReference>
							</answer>
						</question>
					</group>
				</group>
			</QuestionnaireResponse>
		</resource>
	</entry>
	<entry>
		<fullUrl value="urn:uuid:9a746f52-686f-11e7-907b-a6006ad3dba0"/>
		<resource>
			<Encounter>
				<id value="9a746f52-686f-11e7-907b-a6006ad3dba0"/>
				<meta>
					<profile value="https://fhir.nhs.uk/StructureDefinition/CareConnect-DCH-Encounter-1"/>
				</meta>
				<identifier>
					<system value="https://tools.ietf.org/html/rfc4122"/>
					<value value="9a746f52-686f-11e7-907b-a6006ad3dba0"/>
				</identifier>
				<status value="finished"/>
				<type>
					<coding>
						<system value="https://fhir.nhs.uk/DCH-ChildHealthEncounterType-1"/>
						<code value="Newborn Blood Spot Test Outcome"/>
						<display value="Newborn Blood Spot Test Outcome"/>
					</coding>
				</type>
				<patient>
					<reference value="urn:uuid:7368c5fe-bbb4-4e9c-a585-234e06b84e82"/>
					<display value="SAXTON, Sarah Marie"/>
				</patient>
				<period>
					<start value="2012-01-10T09:00:00+00:00"/>
				</period>
				<serviceProvider>
					<reference value="urn:uuid:9a74549a-686f-11e7-907b-a6006ad3dba0"/>
					<display value="Leeds General Infirmary Laboratory"/>
				</serviceProvider>
			</Encounter>
		</resource>
	</entry>
	<entry>
		<fullUrl value="urn:uuid:9a746b4c-686f-11e7-907b-a6006ad3dba0"/>
		<resource>
			<DiagnosticReport>
				<id value="9a746b4c-686f-11e7-907b-a6006ad3dba0"/>
				<meta>
					<profile value="https://fhir.nhs.uk/StructureDefinition/DCH-NewbornBloodSpotScreening-DiagnosticReport-1"/>
				</meta>
				<identifier>
					<system value="https://tools.ietf.org/html/rfc4122"/>
					<value value="9a746b4c-686f-11e7-907b-a6006ad3dba0"/>
				</identifier>
				<status value="final"/>
				<code>
					<coding>
						<system value="http://snomed.info/sct"/>
						<code value="428447008"/>
						<display value="Newborn blood spot screening"/>
					</coding>
				</code>
				<subject>
					<reference value="urn:uuid:7368c5fe-bbb4-4e9c-a585-234e06b84e82"/>
					<display value="SAXTON, Sarah Marie"/>
				</subject>
				<effectiveDateTime value="2012-01-09T10:00:00+00:00"/>
				<issued value="2012-01-10T09:00:00+00:00"/>
				<performer>
					<reference value="urn:uuid:9a74549a-686f-11e7-907b-a6006ad3dba0"/>
					<display value="Leeds General Infirmary Laboratory"/>
				</performer>
				<result>
					<reference value="urn:uuid:9a745cb0-686f-11e7-907b-a6006ad3dba0"/>
				</result>
				<result>
					<reference value="urn:uuid:9a7467c8-686f-11e7-907b-a6006ad3dba0"/>
				</result>
				<result>
					<reference value="urn:uuid:9a74670a-686f-11e7-907b-a6006ad3dba0"/>
				</result>
				<result>
					<reference value="urn:uuid:9a74664c-686f-11e7-907b-a6006ad3dba0"/>
				</result>
				<result>
					<reference value="urn:uuid:9a745ecc-686f-11e7-907b-a6006ad3dba0"/>
				</result>
				<result>
					<reference value="urn:uuid:9a7464c6-686f-11e7-907b-a6006ad3dba0"/>
				</result>
				<result>
					<reference value="urn:uuid:9a745df0-686f-11e7-907b-a6006ad3dba0"/>
				</result>
				<result>
					<reference value="urn:uuid:9a74658e-686f-11e7-907b-a6006ad3dba0"/>
				</result>
				<result>
					<reference value="urn:uuid:9a7463ae-686f-11e7-907b-a6006ad3dba0"/>
				</result>
			</DiagnosticReport>
		</resource>
	</entry>
	<entry>
		<fullUrl value="urn:uuid:9a745cb0-686f-11e7-907b-a6006ad3dba0"/>
		<resource>
			<Procedure>
				<id value="9a745cb0-686f-11e7-907b-a6006ad3dba0"/>
				<meta>
					<profile value="https://fhir.nhs.uk/StructureDefinition/CareConnect-DCH-NewbornBloodSpotScreening-Procedure-1"/>
				</meta>
				<identifier>
					<system value="https://tools.ietf.org/html/rfc4122"/>
					<value value="9a745cb0-686f-11e7-907b-a6006ad3dba0"/>
				</identifier>
				<subject>
					<reference value="urn:uuid:7368c5fe-bbb4-4e9c-a585-234e06b84e82"/>
					<display value="SAXTON, Sarah Marie"/>
				</subject>
				<status value="completed"/>
				<code>
					<coding>
						<system value="http://snomed.info/sct"/>
						<code value="314081000"/>
						<display value="Phenylketonuria screening test (procedure)"/>
					</coding>
				</code>
				<performedDateTime value="2012-01-09T10:00:00+00:00"/>
				<outcome>
					<coding>
						<system value="https://fhir.nhs.uk/DCH-BloodSpotScreeningOutcome-1"/>
						<code value="04"/>
						<display value="(Condition screened for) Not suspected"/>
					</coding>
				</outcome>
			</Procedure>
		</resource>
	</entry>
	<entry>
		<fullUrl value="urn:uuid:9a7467c8-686f-11e7-907b-a6006ad3dba0"/>
		<resource>
			<Procedure>
				<id value="9a7467c8-686f-11e7-907b-a6006ad3dba0"/>
				<meta>
					<profile value="https://fhir.nhs.uk/StructureDefinition/CareConnect-DCH-NewbornBloodSpotScreening-Procedure-1"/>
				</meta>
				<identifier>
					<system value="https://tools.ietf.org/html/rfc4122"/>
					<value value="9a7467c8-686f-11e7-907b-a6006ad3dba0"/>
				</identifier>
				<subject>
					<reference value="urn:uuid:7368c5fe-bbb4-4e9c-a585-234e06b84e82"/>
					<display value="SAXTON, Sarah Marie"/>
				</subject>
				<status value="completed"/>
				<code>
					<coding>
						<system value="http://snomed.info/sct"/>
						<code value="314090007"/>
						<display value="Sickle cell disease screening test (procedure)"/>
					</coding>
				</code>
				<performedDateTime value="2012-01-09T10:00:00+00:00"/>
				<outcome>
					<coding>
						<system value="https://fhir.nhs.uk/DCH-BloodSpotScreeningOutcome-1"/>
						<code value="04"/>
						<display value="(Condition screened for) Not suspected"/>
					</coding>
				</outcome>
			</Procedure>
		</resource>
	</entry>
	<entry>
		<fullUrl value="urn:uuid:9a74670a-686f-11e7-907b-a6006ad3dba0"/>
		<resource>
			<Procedure>
				<id value="9a74670a-686f-11e7-907b-a6006ad3dba0"/>
				<meta>
					<profile value="https://fhir.nhs.uk/StructureDefinition/CareConnect-DCH-NewbornBloodSpotScreening-Procedure-1"/>
				</meta>
				<identifier>
					<system value="https://tools.ietf.org/html/rfc4122"/>
					<value value="9a74670a-686f-11e7-907b-a6006ad3dba0"/>
				</identifier>
				<subject>
					<reference value="urn:uuid:7368c5fe-bbb4-4e9c-a585-234e06b84e82"/>
					<display value="SAXTON, Sarah Marie"/>
				</subject>
				<status value="completed"/>
				<code>
					<coding>
						<system value="http://snomed.info/sct"/>
						<code value="314080004"/>
						<display value="Cystic fibrosis screening test (procedure)"/>
					</coding>
				</code>
				<performedDateTime value="2012-01-09T10:00:00+00:00"/>
				<outcome>
					<coding>
						<system value="https://fhir.nhs.uk/DCH-BloodSpotScreeningOutcome-1"/>
						<code value="04"/>
						<display value="(Condition screened for) Not suspected"/>
					</coding>
				</outcome>
			</Procedure>
		</resource>
	</entry>
	<entry>
		<fullUrl value="urn:uuid:9a74664c-686f-11e7-907b-a6006ad3dba0"/>
		<resource>
			<Procedure>
				<id value="9a74664c-686f-11e7-907b-a6006ad3dba0"/>
				<meta>
					<profile value="https://fhir.nhs.uk/StructureDefinition/CareConnect-DCH-NewbornBloodSpotScreening-Procedure-1"/>
				</meta>
				<identifier>
					<system value="https://tools.ietf.org/html/rfc4122"/>
					<value value="9a74664c-686f-11e7-907b-a6006ad3dba0"/>
				</identifier>
				<subject>
					<reference value="urn:uuid:7368c5fe-bbb4-4e9c-a585-234e06b84e82"/>
					<display value="SAXTON, Sarah Marie"/>
				</subject>
				<status value="completed"/>
				<code>
					<coding>
						<system value="http://snomed.info/sct"/>
						<code value="400984005"/>
						<display value="Congenital hypothyroidism screening test (procedure)"/>
					</coding>
				</code>
				<performedDateTime value="2012-01-09T10:00:00+00:00"/>
				<outcome>
					<coding>
						<system value="https://fhir.nhs.uk/DCH-BloodSpotScreeningOutcome-1"/>
						<code value="04"/>
						<display value="(Condition screened for) Not suspected"/>
					</coding>
				</outcome>
			</Procedure>
		</resource>
	</entry>
	<entry>
		<fullUrl value="urn:uuid:9a745ecc-686f-11e7-907b-a6006ad3dba0"/>
		<resource>
			<Procedure>
				<id value="9a745ecc-686f-11e7-907b-a6006ad3dba0"/>
				<meta>
					<profile value="https://fhir.nhs.uk/StructureDefinition/CareConnect-DCH-NewbornBloodSpotScreening-Procedure-1"/>
				</meta>
				<identifier>
					<system value="https://tools.ietf.org/html/rfc4122"/>
					<value value="9a745ecc-686f-11e7-907b-a6006ad3dba0"/>
				</identifier>
				<subject>
					<reference value="urn:uuid:7368c5fe-bbb4-4e9c-a585-234e06b84e82"/>
					<display value="SAXTON, Sarah Marie"/>
				</subject>
				<status value="completed"/>
				<code>
					<coding>
						<system value="http://snomed.info/sct"/>
						<code value="428056008"/>
						<display value="Medium-chain acyl-coenzyme A dehydrogenase deficiency screening test (procedure)"/>
					</coding>
				</code>
				<performedDateTime value="2012-01-09T10:00:00+00:00"/>
				<outcome>
					<coding>
						<system value="https://fhir.nhs.uk/DCH-BloodSpotScreeningOutcome-1"/>
						<code value="04"/>
						<display value="(Condition screened for) Not suspected"/>
					</coding>
				</outcome>
			</Procedure>
		</resource>
	</entry>
	<entry>
		<fullUrl value="urn:uuid:9a7464c6-686f-11e7-907b-a6006ad3dba0"/>
		<resource>
			<Procedure>
				<id value="9a7464c6-686f-11e7-907b-a6006ad3dba0"/>
				<meta>
					<profile value="https://fhir.nhs.uk/StructureDefinition/CareConnect-DCH-NewbornBloodSpotScreening-Procedure-1"/>
				</meta>
				<identifier>
					<system value="https://tools.ietf.org/html/rfc4122"/>
					<value value="9a7464c6-686f-11e7-907b-a6006ad3dba0"/>
				</identifier>
				<subject>
					<reference value="urn:uuid:7368c5fe-bbb4-4e9c-a585-234e06b84e82"/>
					<display value="SAXTON, Sarah Marie"/>
				</subject>
				<status value="completed"/>
				<code>
					<coding>
						<system value="http://snomed.info/sct"/>
						<code value="940201000000107"/>
						<display value="Blood spot homocystinuria screening test (procedure)"/>
					</coding>
				</code>
				<performedDateTime value="2012-01-09T10:00:00+00:00"/>
				<outcome>
					<coding>
						<system value="https://fhir.nhs.uk/DCH-BloodSpotScreeningOutcome-1"/>
						<code value="04"/>
						<display value="(Condition screened for) Not suspected"/>
					</coding>
				</outcome>
			</Procedure>
		</resource>
	</entry>
	<entry>
		<fullUrl value="urn:uuid:9a745df0-686f-11e7-907b-a6006ad3dba0"/>
		<resource>
			<Procedure>
				<id value="9a745df0-686f-11e7-907b-a6006ad3dba0"/>
				<meta>
					<profile value="https://fhir.nhs.uk/StructureDefinition/CareConnect-DCH-NewbornBloodSpotScreening-Procedure-1"/>
				</meta>
				<identifier>
					<system value="https://tools.ietf.org/html/rfc4122"/>
					<value value="9a745df0-686f-11e7-907b-a6006ad3dba0"/>
				</identifier>
				<subject>
					<reference value="urn:uuid:7368c5fe-bbb4-4e9c-a585-234e06b84e82"/>
					<display value="SAXTON, Sarah Marie"/>
				</subject>
				<status value="completed"/>
				<code>
					<coding>
						<system value="http://snomed.info/sct"/>
						<code value="940221000000103"/>
						<display value="Blood spot maple syrup urine disease screening test (procedure)"/>
					</coding>
				</code>
				<performedDateTime value="2012-01-09T10:00:00+00:00"/>
				<outcome>
					<coding>
						<system value="https://fhir.nhs.uk/DCH-BloodSpotScreeningOutcome-1"/>
						<code value="04"/>
						<display value="(Condition screened for) Not suspected"/>
					</coding>
				</outcome>
			</Procedure>
		</resource>
	</entry>
	<entry>
		<fullUrl value="urn:uuid:9a74658e-686f-11e7-907b-a6006ad3dba0"/>
		<resource>
			<Procedure>
				<id value="9a74658e-686f-11e7-907b-a6006ad3dba0"/>
				<meta>
					<profile value="https://fhir.nhs.uk/StructureDefinition/CareConnect-DCH-NewbornBloodSpotScreening-Procedure-1"/>
				</meta>
				<identifier>
					<system value="https://tools.ietf.org/html/rfc4122"/>
					<value value="9a74658e-686f-11e7-907b-a6006ad3dba0"/>
				</identifier>
				<subject>
					<reference value="urn:uuid:7368c5fe-bbb4-4e9c-a585-234e06b84e82"/>
					<display value="SAXTON, Sarah Marie"/>
				</subject>
				<status value="completed"/>
				<code>
					<coding>
						<system value="http://snomed.info/sct"/>
						<code value="940131000000109"/>
						<display value="Blood spot glutaric aciduria type 1 screening test (procedure)"/>
					</coding>
				</code>
				<performedDateTime value="2012-01-09T10:00:00+00:00"/>
				<outcome>
					<coding>
						<system value="https://fhir.nhs.uk/DCH-BloodSpotScreeningOutcome-1"/>
						<code value="04"/>
						<display value="(Condition screened for) Not suspected"/>
					</coding>
				</outcome>
			</Procedure>
		</resource>
	</entry>
	<entry>
		<fullUrl value="urn:uuid:9a7463ae-686f-11e7-907b-a6006ad3dba0"/>
		<resource>
			<Procedure>
				<id value="9a7463ae-686f-11e7-907b-a6006ad3dba0"/>
				<meta>
					<profile value="https://fhir.nhs.uk/StructureDefinition/CareConnect-DCH-NewbornBloodSpotScreening-Procedure-1"/>
				</meta>
				<identifier>
					<system value="https://tools.ietf.org/html/rfc4122"/>
					<value value="9a7463ae-686f-11e7-907b-a6006ad3dba0"/>
				</identifier>
				<subject>
					<reference value="urn:uuid:7368c5fe-bbb4-4e9c-a585-234e06b84e82"/>
					<display value="SAXTON, Sarah Marie"/>
				</subject>
				<status value="completed"/>
				<code>
					<coding>
						<system value="http://snomed.info/sct"/>
						<code value="940151000000102"/>
						<display value="Blood spot isovaleric acidaemia screening test (procedure)"/>
					</coding>
				</code>
				<performedDateTime value="2012-01-09T10:00:00+00:00"/>
				<outcome>
					<coding>
						<system value="https://fhir.nhs.uk/DCH-BloodSpotScreeningOutcome-1"/>
						<code value="04"/>
						<display value="(Condition screened for) Not suspected"/>
					</coding>
				</outcome>
			</Procedure>
		</resource>
	</entry>
</Bundle>
