{
  "resourceType": "Bundle",
  "id": "1d67b8fe-4f45-11e7-b114-b2f933d5fe66",
  "meta": {
    "profile": [
      "https://fhir.nhs.uk/StructureDefinition/DCH-Bundle-1"
    ]
  },
  "type": "message",
  "entry": [
    {
      "fullUrl": "urn:uuid:1d67bb60-4f45-11e7-b114-b2f933d5fe66",
      "resource": {
        "resourceType": "MessageHeader",
        "id": "1d67bb60-4f45-11e7-b114-b2f933d5fe66",
        "meta": {
          "profile": [
            "https://fhir.nhs.uk/StructureDefinition/DCH-MessageHeader-1"
          ]
        },
        "extension": [
          {
            "url": "https://fhir.nhs.uk/StructureDefinition/Extension-DCH-EventMessageType-1",
            "valueCodeableConcept": {
              "coding": [
                {
                  "system": "https://fhir.nhs.uk/dch-messageeventtype-1",
                  "code": "new",
                  "display": "New event message"
                }
              ]
            }
          }
        ],
        "timestamp": "2012-03-08T09:00:00+00:00",
        "event": {
          "system": "https://fhir.nhs.uk/dch-childhealtheventtype-1",
          "code": "CH011",
          "display": "Emergency Care Attendance"
        },
        "source": {
          "endpoint": "urn:uuid:1d67bb60-4f45-11e7-b114-b2f933d5fe66"
        },
        "responsible": {
          "reference": "urn:uuid:5ccb6bb7-a7f1-46cc-a5d3-135320765553",
          "display": "Leeds Teaching Hospitals"
        },
        "data": [
          {
            "reference": "urn:uuid:1d67bd36-4f45-11e7-b114-b2f933d5fe66"
          }
        ]
      }
    },
    {
      "fullUrl": "urn:uuid:5ccb6bb7-a7f1-46cc-a5d3-135320765553",
      "resource": {
        "resourceType": "Organization",
        "id": "5ccb6bb7-a7f1-46cc-a5d3-135320765553",
        "meta": {
          "profile": [
            "https://fhir.hl7.org.uk/StructureDefinition/CareConnect-DCH-Organization-1"
          ]
        },
        "identifier": [
          {
            "system": "https://fhir.nhs.uk/Id/ods-organization-code",
            "value": "RR8"
          }
        ],
        "name": "Leeds Teaching Hospitals NHS Trust"
      }
    },
    {
      "fullUrl": "urn:uuid:260b2c12-b3df-11e7-abc4-cec278b6b50a",
      "resource": {
        "resourceType": "HealthcareService",
        "id": "260b2c12-b3df-11e7-abc4-cec278b6b50a",
        "meta": {
          "profile": [
            "https://fhir.nhs.uk/StructureDefinition/DCH-HealthcareService-1"
          ]
        },
        "identifier": [
          {
            "system": "https://tools.ietf.org/html/rfc4122",
            "value": "260b2c12-b3df-11e7-abc4-cec278b6b50a"
          }
        ],
        "providedBy": {
          "reference": "urn:uuid:5ccb6bb7-a7f1-46cc-a5d3-135320765553",
          "display": "Leeds Teaching Hospitals NHS Trust"
        },
        "serviceType": [
          {
            "type": {
              "coding": [
                {
                  "system": "https://fhir.nhs.uk/DCH-ProfessionalType-1",
                  "code": "C99",
                  "display": "Other Care Professional"
                }
              ]
            }
          }
        ],
        "location": {
          "reference": "urn:uuid:00e72e70-0e37-48b5-b950-ca5ce8c35de7",
          "display": "Accident and Emergency Department, Leeds General Infirmary"
        }
      }
    },
    {
      "fullUrl": "urn:uuid:7368c5fe-bbb4-4e9c-a585-234e06b84e82",
      "resource": {
        "resourceType": "Patient",
        "id": "7368c5fe-bbb4-4e9c-a585-234e06b84e82",
        "meta": {
          "profile": [
            "https://fhir.hl7.org.uk/StructureDefinition/CareConnect-DCH-Patient-1"
          ]
        },
        "identifier": [
          {
            "extension": [
              {
                "url": "https://fhir.hl7.org.uk/StructureDefinition/Extension-CareConnect-NHSNumberVerificationStatus-1",
                "valueCodeableConcept": {
                  "coding": [
                    {
                      "system": "https://fhir.hl7.org.uk/CareConnect-NHSNumberVerificationStatus-1",
                      "code": "01",
                      "display": "Number present and verified"
                    }
                  ]
                }
              }
            ],
            "system": "https://fhir.nhs.uk/Id/nhs-number",
            "value": "5629874536"
          }
        ],
        "name": [
          {
            "use": "official",
            "family": [
              "Saxton"
            ],
            "given": [
              "Sarah",
              "Marie"
            ]
          }
        ],
        "gender": "female",
        "birthDate": "2012-01-07",
        "_birthDate": {
          "extension": [
            {
              "url": "http://hl7.org/fhir/StructureDefinition/patient-birthTime",
              "valueDateTime": "2012-01-07T20:12:00+00:00"
            }
          ]
        }
      }
    },
    {
      "fullUrl": "urn:uuid:1d67bd36-4f45-11e7-b114-b2f933d5fe66",
      "resource": {
        "resourceType": "Encounter",
        "id": "1d67bd36-4f45-11e7-b114-b2f933d5fe66",
        "meta": {
          "profile": [
            "https://fhir.hl7.org.uk/StructureDefinition/CareConnect-DCH-Encounter-1"
          ]
        },
        "identifier": [
          {
            "system": "https://tools.ietf.org/html/rfc4122",
            "value": "1d67be12-4f45-11e7-b114-b2f933d5fe66"
          }
        ],
        "status": "finished",
        "class": "emergency",
        "type": [
          {
            "coding": [
              {
                "system": "http://snomed.info/sct",
                "code": "4525004",
                "display": "Emergency department patient visit (procedure)"
              }
            ]
          }
        ],
        "patient": {
          "reference": "urn:uuid:7368c5fe-bbb4-4e9c-a585-234e06b84e82",
          "display": "SAXTON, Sarah Marie"
        },
        "participant": [
          {
            "individual": {
              "reference": "urn:uuid:1d67c1f0-4f45-11e7-b114-b2f933d5fe66",
              "display": "RILEY, Amber"
            }
          }
        ],
        "period": {
          "start": "2012-03-06T20:25:00+00:00",
          "end": "2012-03-06T22:00:00+00:00"
        },
        "reason": [
          {
            "text": "Parent reported sudden rash to baby's skin developing from face and spreading to chest."
          }
        ],
        "hospitalization": {
          "admitSource": {
            "coding": [
              {
                "system": "https://fhir.nhs.uk/DCH-SourceOfReferral-1",
                "code": "1",
                "display": "Self referral"
              }
            ]
          },
          "destination": {
            "reference": "urn:uuid:260b5138-b3df-11e7-abc4-cec278b6b50a"
          },
          "dischargeDisposition": {
            "coding": [
              {
                "system": "http://snomed.info/sct",
                "code": "1077021000000100",
                "display": "Streamed from emergency department to general practitioner following initial assessment (situation)"
              }
            ]
          }
        },
        "location": [
          {
            "location": {
              "reference": "urn:uuid:00e72e70-0e37-48b5-b950-ca5ce8c35de7",
              "display": "Accident and Emergency Department, Leeds General Infirmary"
            }
          }
        ],
        "serviceProvider": {
          "reference": "urn:uuid:5ccb6bb7-a7f1-46cc-a5d3-135320765553",
          "display": "Leeds Teaching Hospitals NHS Trust"
        }
      }
    },
    {
      "fullUrl": "urn:uuid:1d67c3a8-4f45-11e7-b114-b2f933d5fe66",
      "resource": {
        "resourceType": "Condition",
        "id": "1d67c3a8-4f45-11e7-b114-b2f933d5fe66",
        "meta": {
          "profile": [
            "https://fhir.hl7.org.uk/StructureDefinition/CareConnect-DCH-Condition-1"
          ]
        },
        "identifier": [
          {
            "system": "https://tools.ietf.org/html/rfc4122",
            "value": "1d67c3a8-4f45-11e7-b114-b2f933d5fe66"
          }
        ],
        "patient": {
          "reference": "urn:uuid:7368c5fe-bbb4-4e9c-a585-234e06b84e82",
          "display": "SAXTON, Sarah Marie"
        },
        "encounter": {
          "reference": "urn:uuid:1d67bd36-4f45-11e7-b114-b2f933d5fe66"
        },
        "asserter": {
          "reference": "urn:uuid:1d67c1f0-4f45-11e7-b114-b2f933d5fe66",
          "display": "RILEY, Amber"
        },
        "dateRecorded": "2012-03-06",
        "code": {
          "coding": [
            {
              "system": "http://snomed.info/sct",
              "code": "271807003",
              "display": "Eruption of skin (disorder)"
            }
          ]
        },
        "category": {
          "coding": [
            {
              "system": "https://hl7.org.uk/fhir/CareConnect-ConditionCategory-1",
              "code": "complaint",
              "display": "Complaint"
            }
          ]
        },
        "verificationStatus": "confirmed"
      }
    },
    {
      "fullUrl": "urn:uuid:1d67c470-4f45-11e7-b114-b2f933d5fe66",
      "resource": {
        "resourceType": "Condition",
        "id": "1d67c470-4f45-11e7-b114-b2f933d5fe66",
        "meta": {
          "profile": [
            "https://fhir.hl7.org.uk/StructureDefinition/CareConnect-DCH-Condition-1"
          ]
        },
        "identifier": [
          {
            "system": "https://tools.ietf.org/html/rfc4122",
            "value": "1d67c470-4f45-11e7-b114-b2f933d5fe66"
          }
        ],
        "patient": {
          "reference": "urn:uuid:7368c5fe-bbb4-4e9c-a585-234e06b84e82",
          "display": "SAXTON, Sarah Marie"
        },
        "encounter": {
          "reference": "urn:uuid:1d67bd36-4f45-11e7-b114-b2f933d5fe66"
        },
        "asserter": {
          "reference": "urn:uuid:1d67c1f0-4f45-11e7-b114-b2f933d5fe66",
          "display": "RILEY, Amber"
        },
        "dateRecorded": "2012-03-06",
        "code": {
          "coding": [
            {
              "system": "http://snomed.info/sct",
              "code": "240302002",
              "display": "Erythroderma neonatorum (disorder)"
            }
          ]
        },
        "category": {
          "coding": [
            {
              "system": "https://hl7.org.uk/fhir/CareConnect-ConditionCategory-1",
              "code": "diagnosis",
              "display": "Diagnosis"
            }
          ]
        },
        "verificationStatus": "confirmed"
      }
    },
    {
      "fullUrl": "urn:uuid:1d67e0ea-4f45-11e7-b114-b2f933d5fe66",
      "resource": {
        "resourceType": "RelatedPerson",
        "id": "1d67e0ea-4f45-11e7-b114-b2f933d5fe66",
        "meta": {
          "profile": [
            "https://fhir.nhs.uk/StructureDefinition/DCH-RelatedPerson-1"
          ]
        },
        "identifier": [
          {
            "system": "https://tools.ietf.org/html/rfc4122",
            "value": "1d67e022-4f45-11e7-b114-b2f933d5fe66"
          }
        ],
        "patient": {
          "reference": "urn:uuid:7368c5fe-bbb4-4e9c-a585-234e06b84e82",
          "display": "SAXTON, Sarah Marie"
        },
        "relationship": {
          "coding": [
            {
              "system": "http://hl7.org/fhir/v3/RoleCode",
              "code": "NMTH",
              "display": "natural mother"
            }
          ]
        },
        "name": {
          "use": "usual",
          "family": [
            "SAXTON"
          ],
          "given": [
            "Jane"
          ]
        }
      }
    },
    {
      "fullUrl": "urn:uuid:00e72e70-0e37-48b5-b950-ca5ce8c35de7",
      "resource": {
        "resourceType": "Organization",
        "id": "00e72e70-0e37-48b5-b950-ca5ce8c35de7",
        "meta": {
          "profile": [
            "https://fhir.hl7.org.uk/StructureDefinition/CareConnect-DCH-Organization-1"
          ]
        },
        "identifier": [
          {
            "system": "https://fhir.nhs.uk/Id/ods-site-code",
            "value": "RR830"
          }
        ],
        "name": "Accident and Emergency Department, Leeds General Infirmary"
      }
    },
    {
      "fullUrl": "urn:uuid:1d67c1f0-4f45-11e7-b114-b2f933d5fe66",
      "resource": {
        "resourceType": "Practitioner",
        "id": "1d67c1f0-4f45-11e7-b114-b2f933d5fe66",
        "meta": {
          "profile": [
            "https://fhir.hl7.org.uk/StructureDefinition/CareConnect-DCH-Practitioner-1"
          ]
        },
        "identifier": [
          {
            "system": "http://fhir.nhs.net/Id/sds-role-profile-id",
            "value": "PT1357"
          }
        ],
        "name": {
          "family": [
            "Riley"
          ],
          "given": [
            "Amber"
          ]
        },
        "practitionerRole": [
          {
            "role": {
              "coding": [
                {
                  "system": "https://fhir.hl7.org.uk/CareConnect-SDSJobRoleName-1",
                  "code": "R0050",
                  "display": "Consultant"
                }
              ]
            }
          }
        ]
      }
    },
    {
      "fullUrl": "urn:uuid:260b5138-b3df-11e7-abc4-cec278b6b50a",
      "resource": {
        "resourceType": "Location",
        "id": "260b5138-b3df-11e7-abc4-cec278b6b50a",
        "meta": {
          "profile": [
            "https://fhir.nhs.uk/StructureDefinition/CareConnect-DCH-EmergencyDischarge-Location-1"
          ]
        },
        "physicalType": {
          "coding": [
            {
              "system": "http://snomed.info/sct",
              "code": "306689006",
              "display": "Discharge to home (procedure)"
            }
          ]
        }
      }
    }
  ]
}