<Bundle xmlns="http://hl7.org/fhir"><id value="1d67b8fe-4f45-11e7-b114-b2f933d5fe66" /><meta><profile value="https://fhir.nhs.uk/StructureDefinition/DCH-Bundle-1" /></meta><type value="message" /><entry><fullUrl value="urn:uuid:1d67bb60-4f45-11e7-b114-b2f933d5fe66" /><resource><MessageHeader><id value="1d67bb60-4f45-11e7-b114-b2f933d5fe66" /><meta><profile value="https://fhir.nhs.uk/StructureDefinition/DCH-MessageHeader-1" /></meta><extension url="https://fhir.nhs.uk/StructureDefinition/Extension-DCH-EventMessageType-1"><valueCodeableConcept><coding><system value="https://fhir.nhs.uk/dch-messageeventtype-1" /><code value="new" /><display value="New event message" /></coding></valueCodeableConcept></extension><timestamp value="2012-03-08T09:00:00+00:00" /><event><system value="https://fhir.nhs.uk/dch-childhealtheventtype-1" /><code value="CH011" /><display value="Emergency Care Attendance" /></event><source><endpoint value="urn:uuid:1d67bb60-4f45-11e7-b114-b2f933d5fe66" /></source><responsible><reference value="urn:uuid:5ccb6bb7-a7f1-46cc-a5d3-135320765553" /><display value="Leeds Teaching Hospitals" /></responsible><data><reference value="urn:uuid:1d67bd36-4f45-11e7-b114-b2f933d5fe66" /></data></MessageHeader></resource></entry><entry><fullUrl value="urn:uuid:5ccb6bb7-a7f1-46cc-a5d3-135320765553" /><resource><Organization><id value="5ccb6bb7-a7f1-46cc-a5d3-135320765553" /><meta><profile value="https://fhir.hl7.org.uk/StructureDefinition/CareConnect-DCH-Organization-1" /></meta><identifier><system value="https://fhir.nhs.uk/Id/ods-organization-code" /><value value="RR8" /></identifier><name value="Leeds Teaching Hospitals NHS Trust" /></Organization></resource></entry><entry><fullUrl value="urn:uuid:260b2c12-b3df-11e7-abc4-cec278b6b50a" /><resource><HealthcareService><id value="260b2c12-b3df-11e7-abc4-cec278b6b50a" /><meta><profile value="https://fhir.nhs.uk/StructureDefinition/DCH-HealthcareService-1" /></meta><identifier><system value="https://tools.ietf.org/html/rfc4122" /><value value="260b2c12-b3df-11e7-abc4-cec278b6b50a" /></identifier><providedBy><reference value="urn:uuid:5ccb6bb7-a7f1-46cc-a5d3-135320765553" /><display value="Leeds Teaching Hospitals NHS Trust" /></providedBy><serviceType><type><coding><system value="https://fhir.nhs.uk/DCH-ProfessionalType-1" /><code value="C99" /><display value="Other Care Professional" /></coding></type></serviceType><location><reference value="urn:uuid:00e72e70-0e37-48b5-b950-ca5ce8c35de7" /><display value="Accident and Emergency Department, Leeds General Infirmary" /></location></HealthcareService></resource></entry><entry><fullUrl value="urn:uuid:7368c5fe-bbb4-4e9c-a585-234e06b84e82" /><resource><Patient><id value="7368c5fe-bbb4-4e9c-a585-234e06b84e82" /><meta><profile value="https://fhir.hl7.org.uk/StructureDefinition/CareConnect-DCH-Patient-1" /></meta><identifier><extension url="https://fhir.hl7.org.uk/StructureDefinition/Extension-CareConnect-NHSNumberVerificationStatus-1"><valueCodeableConcept><coding><system value="https://fhir.hl7.org.uk/CareConnect-NHSNumberVerificationStatus-1" /><code value="01" /><display value="Number present and verified" /></coding></valueCodeableConcept></extension><system value="https://fhir.nhs.uk/Id/nhs-number" /><value value="5629874536" /></identifier><name><use value="official" /><family value="Saxton" /><given value="Sarah" /><given value="Marie" /></name><gender value="female" /><birthDate value="2012-01-07"><extension url="http://hl7.org/fhir/StructureDefinition/patient-birthTime"><valueDateTime value="2012-01-07T20:12:00+00:00" /></extension></birthDate></Patient></resource></entry><entry><fullUrl value="urn:uuid:1d67bd36-4f45-11e7-b114-b2f933d5fe66" /><resource><Encounter><id value="1d67bd36-4f45-11e7-b114-b2f933d5fe66" /><meta><profile value="https://fhir.hl7.org.uk/StructureDefinition/CareConnect-DCH-Encounter-1" /></meta><identifier><system value="https://tools.ietf.org/html/rfc4122" /><value value="1d67be12-4f45-11e7-b114-b2f933d5fe66" /></identifier><status value="finished" /><class value="emergency" /><type><coding><system value="http://snomed.info/sct" /><code value="4525004" /><display value="Emergency department patient visit (procedure)" /></coding></type><patient><reference value="urn:uuid:7368c5fe-bbb4-4e9c-a585-234e06b84e82" /><display value="SAXTON, Sarah Marie" /></patient><participant><individual><reference value="urn:uuid:1d67c1f0-4f45-11e7-b114-b2f933d5fe66" /><display value="RILEY, Amber" /></individual></participant><period><start value="2012-03-06T20:25:00+00:00" /><end value="2012-03-06T22:00:00+00:00" /></period><reason><text value="Parent reported sudden rash to baby's skin developing from face and spreading to chest." /></reason><hospitalization><admitSource><coding><system value="https://fhir.nhs.uk/DCH-SourceOfReferral-1" /><code value="1" /><display value="Self referral" /></coding></admitSource><destination><reference value="urn:uuid:260b5138-b3df-11e7-abc4-cec278b6b50a" /></destination><dischargeDisposition><coding><system value="http://snomed.info/sct" /><code value="1077021000000100" /><display value="Streamed from emergency department to general practitioner following initial assessment (situation)" /></coding></dischargeDisposition></hospitalization><location><location><reference value="urn:uuid:00e72e70-0e37-48b5-b950-ca5ce8c35de7" /><display value="Accident and Emergency Department, Leeds General Infirmary" /></location></location><serviceProvider><reference value="urn:uuid:5ccb6bb7-a7f1-46cc-a5d3-135320765553" /><display value="Leeds Teaching Hospitals NHS Trust" /></serviceProvider></Encounter></resource></entry><entry><fullUrl value="urn:uuid:1d67c3a8-4f45-11e7-b114-b2f933d5fe66" /><resource><Condition><id value="1d67c3a8-4f45-11e7-b114-b2f933d5fe66" /><meta><profile value="https://fhir.hl7.org.uk/StructureDefinition/CareConnect-DCH-Condition-1" /></meta><identifier><system value="https://tools.ietf.org/html/rfc4122" /><value value="1d67c3a8-4f45-11e7-b114-b2f933d5fe66" /></identifier><patient><reference value="urn:uuid:7368c5fe-bbb4-4e9c-a585-234e06b84e82" /><display value="SAXTON, Sarah Marie" /></patient><encounter><reference value="urn:uuid:1d67bd36-4f45-11e7-b114-b2f933d5fe66" /></encounter><asserter><reference value="urn:uuid:1d67c1f0-4f45-11e7-b114-b2f933d5fe66" /><display value="RILEY, Amber" /></asserter><dateRecorded value="2012-03-06" /><code><coding><system value="http://snomed.info/sct" /><code value="271807003" /><display value="Eruption of skin (disorder)" /></coding></code><category><coding><system value="https://hl7.org.uk/fhir/CareConnect-ConditionCategory-1" /><code value="complaint" /><display value="Complaint" /></coding></category><verificationStatus value="confirmed" /></Condition></resource></entry><entry><fullUrl value="urn:uuid:1d67c470-4f45-11e7-b114-b2f933d5fe66" /><resource><Condition><id value="1d67c470-4f45-11e7-b114-b2f933d5fe66" /><meta><profile value="https://fhir.hl7.org.uk/StructureDefinition/CareConnect-DCH-Condition-1" /></meta><identifier><system value="https://tools.ietf.org/html/rfc4122" /><value value="1d67c470-4f45-11e7-b114-b2f933d5fe66" /></identifier><patient><reference value="urn:uuid:7368c5fe-bbb4-4e9c-a585-234e06b84e82" /><display value="SAXTON, Sarah Marie" /></patient><encounter><reference value="urn:uuid:1d67bd36-4f45-11e7-b114-b2f933d5fe66" /></encounter><asserter><reference value="urn:uuid:1d67c1f0-4f45-11e7-b114-b2f933d5fe66" /><display value="RILEY, Amber" /></asserter><dateRecorded value="2012-03-06" /><code><coding><system value="http://snomed.info/sct" /><code value="240302002" /><display value="Erythroderma neonatorum (disorder)" /></coding></code><category><coding><system value="https://hl7.org.uk/fhir/CareConnect-ConditionCategory-1" /><code value="diagnosis" /><display value="Diagnosis" /></coding></category><verificationStatus value="confirmed" /></Condition></resource></entry><entry><fullUrl value="urn:uuid:1d67e0ea-4f45-11e7-b114-b2f933d5fe66" /><resource><RelatedPerson><id value="1d67e0ea-4f45-11e7-b114-b2f933d5fe66" /><meta><profile value="https://fhir.nhs.uk/StructureDefinition/DCH-RelatedPerson-1" /></meta><identifier><system value="https://tools.ietf.org/html/rfc4122" /><value value="1d67e022-4f45-11e7-b114-b2f933d5fe66" /></identifier><patient><reference value="urn:uuid:7368c5fe-bbb4-4e9c-a585-234e06b84e82" /><display value="SAXTON, Sarah Marie" /></patient><relationship><coding><system value="http://hl7.org/fhir/v3/RoleCode" /><code value="NMTH" /><display value="natural mother" /></coding></relationship><name><use value="usual" /><family value="SAXTON" /><given value="Jane" /></name></RelatedPerson></resource></entry><entry><fullUrl value="urn:uuid:00e72e70-0e37-48b5-b950-ca5ce8c35de7" /><resource><Organization><id value="00e72e70-0e37-48b5-b950-ca5ce8c35de7" /><meta><profile value="https://fhir.hl7.org.uk/StructureDefinition/CareConnect-DCH-Organization-1" /></meta><identifier><system value="https://fhir.nhs.uk/Id/ods-site-code" /><value value="RR830" /></identifier><name value="Accident and Emergency Department, Leeds General Infirmary" /></Organization></resource></entry><entry><fullUrl value="urn:uuid:1d67c1f0-4f45-11e7-b114-b2f933d5fe66" /><resource><Practitioner><id value="1d67c1f0-4f45-11e7-b114-b2f933d5fe66" /><meta><profile value="https://fhir.hl7.org.uk/StructureDefinition/CareConnect-DCH-Practitioner-1" /></meta><identifier><system value="http://fhir.nhs.net/Id/sds-role-profile-id" /><value value="PT1357" /></identifier><name><family value="Riley" /><given value="Amber" /></name><practitionerRole><role><coding><system value="https://fhir.hl7.org.uk/CareConnect-SDSJobRoleName-1" /><code value="R0050" /><display value="Consultant" /></coding></role></practitionerRole></Practitioner></resource></entry><entry><fullUrl value="urn:uuid:260b5138-b3df-11e7-abc4-cec278b6b50a" /><resource><Location><id value="260b5138-b3df-11e7-abc4-cec278b6b50a" /><meta><profile value="https://fhir.nhs.uk/StructureDefinition/CareConnect-DCH-EmergencyDischarge-Location-1" /></meta><physicalType><coding><system value="http://snomed.info/sct" /><code value="306689006" /><display value="Discharge to home (procedure)" /></coding></physicalType></Location></resource></entry></Bundle>