<?xml version="1.0" encoding="UTF-8"?>
<!--This example message is provided for illustrative purposes only. It has had no clinical validation. Where there are conflicts with the written message specification or schema, the specification or schema shall be considered to take precedence-->
<Bundle xmlns="http://hl7.org/fhir" xmlns:xsi="http://www.w3.org/2001/XMLSchema-instance" xsi:schemaLocation="http://hl7.org/fhir ../../Schemas/bundle.xsd">
	<id value="e9dbfbae-5bdc-11e7-907b-a6006ad3dba0"/>
	<meta>
		<profile value="https://fhir.nhs.uk/StructureDefinition/DCH-Bundle-1"/>
	</meta>
	<type value="message"/>
	<entry>
		<fullUrl value="urn:uuid:e9dbfd2a-5bdc-11e7-907b-a6006ad3dba0"/>
		<resource>
			<MessageHeader>
				<id value="e9dbfd2a-5bdc-11e7-907b-a6006ad3dba0"/>
				<meta>
					<profile value="https://fhir.nhs.uk/StructureDefinition/DCH-MessageHeader-1"/>
				</meta>
				<extension url="https://fhir.nhs.uk/StructureDefinition/Extension-DCH-EventMessageType-1">
					<valueCodeableConcept>
						<coding>
							<system value="https://fhir.nhs.uk/dch-messageeventtype-1"/>
							<code value="new"/>
							<display value="New event message"/>
						</coding>
					</valueCodeableConcept>
				</extension>
				<timestamp value="2012-01-31T09:00:00+00:00"/>
				<event>
					<system value="https://fhir.nhs.uk/dch-childhealtheventtype-1"/>
					<code value="Immunisation: BCG imms"/>
					<display value="Immunisation: BCG imms"/>
				</event>
				<source>
					<endpoint value="urn:uuid:1d67bb60-4f45-11e7-b114-b2f933d5fe66"/>
				</source>
				<responsible>
					<reference value="urn:uuid:5ccb6bb7-a7f1-46cc-a5d3-135320765553"/>
					<display value="Leeds Teaching Hospitals"/>
				</responsible>
				<data>
					<reference value="urn:uuid:e9dbfea6-5bdc-11e7-907b-a6006ad3dba0"/>
				</data>
			</MessageHeader>
		</resource>
	</entry>
	<entry>
		<fullUrl value="urn:uuid:5ccb6bb7-a7f1-46cc-a5d3-135320765553"/>
		<resource>
			<Organization>
				<id value="5ccb6bb7-a7f1-46cc-a5d3-135320765553"/>
				<meta>
					<profile value="https://fhir.hl7.org.uk/StructureDefinition/CareConnect-Organization-1"/>
				</meta>
				<identifier>
					<system value="https://fhir.nhs.uk/Id/ods-organization-code"/>
					<value value="RR8"/>
				</identifier>
				<name value="Leeds Teaching Hospitals NHS Trust"/>
			</Organization>
		</resource>
	</entry>
	<entry>
		<fullUrl value="urn:uuid:7368c5fe-bbb4-4e9c-a585-234e06b84e82"/>
		<resource>
			<Patient>
				<id value="7368c5fe-bbb4-4e9c-a585-234e06b84e82"/>
				<meta>
					<profile value="https://fhir.hl7.org.uk/StructureDefinition/CareConnect-DCH-Patient-1"/>
				</meta>
				<identifier>
					<extension url="https://fhir.hl7.org.uk/StructureDefinition/Extension-CareConnect-NHSNumberVerificationStatus-1">
						<valueCodeableConcept>
							<coding>
								<system value="https://fhir.hl7.org.uk/CareConnect-NHSNumberVerificationStatus-1"/>
								<code value="01"/>
								<display value="Number present and verified"/>
							</coding>
						</valueCodeableConcept>
					</extension>
					<system value="https://fhir.nhs.uk/Id/nhs-number"/>
					<value value="5629874536"/>
				</identifier>
				<name>
					<use value="official"/>
					<family value="Saxton"/>
					<given value="Sarah"/>
					<given value="Marie"/>
				</name>
				<gender value="female"/>
				<birthDate value="2012-01-07">
					<extension url="http://hl7.org/fhir/StructureDefinition/patient-birthTime">
						<valueDateTime value="2012-01-07T20:12:00+00:00"/>
					</extension>
				</birthDate>
			</Patient>
		</resource>
	</entry>
	<entry>
		<fullUrl value="urn:uuid:e9dbfea6-5bdc-11e7-907b-a6006ad3dba0"/>
		<resource>
			<QuestionnaireResponse>
				<id value="e9dbfea6-5bdc-11e7-907b-a6006ad3dba0"/>
				<meta>
					<profile value="https://fhir.nhs.uk/StructureDefinition/DCH-QuestionnaireResponse-1"/>
				</meta>
				<identifier>
					<system value="https://tools.ietf.org/html/rfc4122"/>
					<value value="e9dbfea6-5bdc-11e7-907b-a6006ad3dba0"/>
				</identifier>
				<status value="completed"/>
				<subject>
					<reference value="urn:uuid:7368c5fe-bbb4-4e9c-a585-234e06b84e82"/>
					<display value="SAXTON, Sarah Marie"/>
				</subject>
				<author>
					<reference value="urn:uuid:5ccb6bb7-a7f1-46cc-a5d3-135320765553"/>
					<display value="Leeds Teaching Hospitals"/>
				</author>
				<encounter>
					<reference value="urn:uuid:e9dbffdc-5bdc-11e7-907b-a6006ad3dba0"/>
				</encounter>
				<group>
					<group>
						<title value="Indicator BCG"/>
						<question>
							<text value="An indication as to whether BCG vaccine is required"/>
							<answer>
								<valueBoolean value="true"/>
							</answer>
							<answer>
								<valueReference>
									<reference value="urn:uuid:1d67c470-4f45-11e7-b114-b2f933d5fe66"/>
								</valueReference>
							</answer>
						</question>
						<question>
							<text value="The reason why BCG vaccine is indicated"/>
							<answer>
								<valueString value="Parent/grandparent born in a country with a high TB rate"/>
							</answer>
							<answer>
								<valueReference>
									<reference value="urn:uuid:1d67c470-4f45-11e7-b114-b2f933d5fe66"/>
								</valueReference>
							</answer>
						</question>
						<question>
							<text value="The country of birth of parent or grandparent who was born in a country with a high TB rate"/>
							<answer>
								<valueString value="South Africa"/>
							</answer>
							<answer>
								<valueReference>
									<reference value="urn:uuid:1d67c470-4f45-11e7-b114-b2f933d5fe66"/>
								</valueReference>
							</answer>
						</question>
					</group>
					<group>
						<title value="HCP Clinical Intervention: Immunisation"/>
						<question>
							<text value="Immunisation Date"/>
							<answer>
								<valueDate value="2012-01-29"/>
							</answer>
							<answer>
								<valueReference>
									<reference value="urn:uuid:e9dc255c-5bdc-11e7-907b-a6006ad3dba0"/>
								</valueReference>
							</answer>
						</question>
						<question>
							<text value="Consent Status"/>
							<answer>
								<valueCoding>
									<system value="https://fhir.nhs.uk/DCH-ConsentStatus-1"/>
									<code value="Consented"/>
									<display value="Consented"/>
								</valueCoding>
							</answer>
							<answer>
								<valueReference>
									<reference value="urn:uuid:e9dc055e-5bdc-11e7-907b-a6006ad3dba0"/>
								</valueReference>
							</answer>
						</question>
						<question>
							<text value="Attendance Status"/>
							<answer>
								<valueCoding>
									<system value="http://hl7.org/fhir/appointmentstatus"/>
									<code value="fulfilled"/>
									<display value="Fulfilled"/>
								</valueCoding>
							</answer>
							<answer>
								<valueReference>
									<reference value="urn:uuid:e9dc255c-5bdc-11e7-907b-a6006ad3dba0"/>
								</valueReference>
							</answer>
						</question>
						<question>
							<text value="Outcome"/>
							<answer>
								<valueCoding>
									<system value="http://hl7.org/fhir/procedure-status"/>
									<code value="completed"/>
									<display value="Completed"/>
								</valueCoding>
							</answer>
							<answer>
								<valueReference>
									<reference value="urn:uuid:e9dc1bc0-5bdc-11e7-907b-a6006ad3dba0"/>
								</valueReference>
							</answer>
						</question>
					</group>
					<group>
						<text value="Immunisation: Immunisation Administration"/>
						<question>
							<text value="A unique identifier for an immunisation from a specific clinical terminology."/>
							<answer>
								<valueCoding>
									<system value="http://snomed.info/sct"/>
									<code value="42284007"/>
									<display value="Bacillus Calmette-Guerin vaccination (procedure)"/>
								</valueCoding>
							</answer>
							<answer>
								<valueReference>
									<reference value="urn:uuid:e9dc055e-5bdc-11e7-907b-a6006ad3dba0"/>
								</valueReference>
							</answer>
						</question>
						<question>
							<text value="A status to identify whether an immunisation was administered or not"/>
							<answer>
								<valueBoolean value="true"/>
							</answer>
							<answer>
								<valueReference>
									<reference value="urn:uuid:e9dbfa46-5bdc-11e7-907b-a6006ad3dba0"/>
								</valueReference>
							</answer>
						</question>
						<question>
							<text value="Name of vaccine manufacturer "/>
							<answer>
								<valueString value="Statens Serum Institut (SSI)"/>
							</answer>
							<answer>
								<valueReference>
									<reference value="urn:uuid:e9dc2412-5bdc-11e7-907b-a6006ad3dba0"/>
								</valueReference>
							</answer>
						</question>
						<question>
							<text value="Vaccine product administered"/>
							<answer>
								<valueCoding>
									<system value="http://snomed.info/sct"/>
									<code value="9316611000001101"/>
									<display value="BCG vaccine powder and solvent for suspension for injection vials (Statens Serum Institut) (product)"/>
								</valueCoding>
							</answer>
							<answer>
								<valueReference>
									<reference value="urn:uuid:e9dbfa46-5bdc-11e7-907b-a6006ad3dba0"/>
								</valueReference>
							</answer>
						</question>
						<question>
							<text value="The batch number of the vaccine product."/>
							<answer>
								<valueString value="114022A"/>
							</answer>
							<answer>
								<valueReference>
									<reference value="urn:uuid:e9dbfa46-5bdc-11e7-907b-a6006ad3dba0"/>
								</valueReference>
							</answer>
						</question>
						<question>
							<text value="Body site vaccine was administered to."/>
							<answer>
								<valueCoding>
									<system value="http://snomed.info/sct"/>
									<code value="123851003"/>
									<display value="Mouth"/>
								</valueCoding>
							</answer>
							<answer>
								<valueReference>
									<reference value="urn:uuid:e9dbfa46-5bdc-11e7-907b-a6006ad3dba0"/>
								</valueReference>
							</answer>
						</question>
						<question>
							<text value="How vaccine entered the body."/>
							<answer>
								<valueCoding>
									<system value="http://snomed.info/sct"/>
									<code value="26643006"/>
									<display value="Oral route"/>
								</valueCoding>
							</answer>
							<answer>
								<valueReference>
									<reference value="urn:uuid:e9dbfa46-5bdc-11e7-907b-a6006ad3dba0"/>
								</valueReference>
							</answer>
						</question>
						<question>
							<text value="Amount of vaccine administered."/>
							<answer>
								<valueQuantity>
									<value value="0.05"/>
									<system value="http://unitsofmeasure.org"/>
									<code value="ml"/>
								</valueQuantity>
							</answer>
							<answer>
								<valueReference>
									<reference value="urn:uuid:e9dbfa46-5bdc-11e7-907b-a6006ad3dba0"/>
								</valueReference>
							</answer>
						</question>
						<question>
							<text value="Diseases protected against"/>
							<answer>
								<valueCoding>
									<system value="http://snomed.info/sct"/>
									<code value="56717001"/>
									<display value="Tuberculosis (disorder)"/>
								</valueCoding>
							</answer>
							<answer>
								<valueReference>
									<reference value="urn:uuid:e9dbfa46-5bdc-11e7-907b-a6006ad3dba0"/>
								</valueReference>
							</answer>
						</question>
						<question>
							<text value="Nominal position in a series of vaccines"/>
							<answer>
								<valueInteger value="1"/>
							</answer>
							<answer>
								<valueReference>
									<reference value="urn:uuid:e9dbfa46-5bdc-11e7-907b-a6006ad3dba0"/>
								</valueReference>
							</answer>
						</question>
						<question>
							<text value="Where an administration was reported rather than directly administered"/>
							<answer>
								<valueBoolean value="false"/>
							</answer>
							<answer>
								<valueReference>
									<reference value="urn:uuid:e9dbfa46-5bdc-11e7-907b-a6006ad3dba0"/>
								</valueReference>
							</answer>
						</question>
						<question>
							<text value="Professional Group of the Professional performing the Immunisation."/>
							<answer>
								<valueCoding>
									<system value="https://fhir.hl7.org.uk/CareConnect-SDSJobRoleName-1"/>
									<code value="R8000"/>
									<display value="General Medical Practitioner"/>
								</valueCoding>
							</answer>
							<answer>
								<valueReference>
									<reference value="urn:uuid:e9dbf8e8-5bdc-11e7-907b-a6006ad3dba0"/>
								</valueReference>
							</answer>
						</question>
						<question>
							<text value="Code of the Professional performing the Immunisation."/>
							<answer>
								<valueString value="PT2468"/>
							</answer>
							<answer>
								<valueReference>
									<reference value="urn:uuid:e9dbf8e8-5bdc-11e7-907b-a6006ad3dba0"/>
								</valueReference>
							</answer>
						</question>
						<question>
							<text value="The Site code of where the Immunisation took place."/>
							<answer>
								<valueString value="B86022"/>
							</answer>
							<answer>
								<valueReference>
									<reference value="urn:uuid:e9dbf730-5bdc-11e7-907b-a6006ad3dba0"/>
								</valueReference>
							</answer>
						</question>
						<question>
							<text value="Organisation performing the Immunisation."/>
							<answer>
								<valueString value="B86022"/>
							</answer>
							<answer>
								<valueReference>
									<reference value="urn:uuid:e9dbf730-5bdc-11e7-907b-a6006ad3dba0"/>
								</valueReference>
							</answer>
						</question>
					</group>
					<group>
						<text value="Breastfeeding Status"/>
						<question>
							<text value="Whether the baby's first feed was breast milk."/>
							<answer>
								<valueCoding>
									<system value="https://fhir.nhs.uk/DCH-FirstMilkFeed-1"/>
									<code value="1"/>
									<display value="Maternal Breast Milk"/>
								</valueCoding>
							</answer>
							<answer>
								<valueReference>
									<reference value="urn:uuid:e9dc1cf6-5bdc-11e7-907b-a6006ad3dba0"/>
								</valueReference>
							</answer>
						</question>
						<question>
							<text value="The breastfeeding status of a baby."/>
							<answer>
								<valueCoding>
									<system value="hir.nhs.uk/DCH-BreastfeedingStatus-1"/>
									<code value="1"/>
									<display value="Exclusively breast milk feeding"/>
								</valueCoding>
							</answer>
							<answer>
								<valueReference>
									<reference value="urn:uuid:e9dc2278-5bdc-11e7-907b-a6006ad3dba0"/>
								</valueReference>
							</answer>
						</question>
					</group>
				</group>
			</QuestionnaireResponse>
		</resource>
	</entry>
	<entry>
		<fullUrl value="urn:uuid:1d67c470-4f45-11e7-b114-b2f933d5fe66"/>
		<resource>
			<Condition>
				<id value="1d67c470-4f45-11e7-b114-b2f933d5fe66"/>
				<meta>
					<profile value="https://fhir.hl7.org.uk/StructureDefinition/CareConnect-DCH-BCGVaccineRequirement-Condition-1"/>
				</meta>
				<identifier>
					<system value="https://tools.ietf.org/html/rfc4122"/>
					<value value="1d67c470-4f45-11e7-b114-b2f933d5fe66"/>
				</identifier>
				<patient>
					<reference value="urn:uuid:7368c5fe-bbb4-4e9c-a585-234e06b84e82"/>
					<display value="SAXTON, Sarah Marie"/>
				</patient>
				<asserter>
					<reference value="urn:uuid:e9dbf8e8-5bdc-11e7-907b-a6006ad3dba0"/>
					<display value="JONES, Bob (Dr.)"/>
				</asserter>
				<dateRecorded value="2012-01-22"/>
				<code>
					<coding>
						<system value="http://snomed.info/sct"/>
						<code value="429069001"/>
						<display value="Requires Bacillus Calmette-Guerin vaccination (finding)"/>
					</coding>
				</code>
				<category>
					<coding>
						<system value="https://hl7.org.uk/fhir/CareConnect-ConditionCategory-1"/>
						<code value="finding"/>
						<display value="Finding"/>
					</coding>
				</category>
				<verificationStatus value="confirmed"/>
				<notes value="Parent/grandparent born in a country with a high TB rate - South Africa"/>
			</Condition>
		</resource>
	</entry>
	<entry>
		<fullUrl value="urn:uuid:e9dbfa46-5bdc-11e7-907b-a6006ad3dba0"/>
		<resource>
			<Immunization>
				<id value="e9dbfa46-5bdc-11e7-907b-a6006ad3dba0"/>
				<meta>
					<profile value="https://fhir.hl7.org.uk/StructureDefinition/CareConnect-DCH-Immunization-1"/>
				</meta>
				<identifier>
					<system value="https://tools.ietf.org/html/rfc4122"/>
					<value value="e9dbfa46-5bdc-11e7-907b-a6006ad3dba0"/>
				</identifier>
				<status value="completed"/>
				<date value="2012-01-29"/>
				<vaccineCode>
					<coding>
						<system value="http://snomed.info/sct"/>
						<code value="9316611000001101"/>
						<display value="BCG vaccine powder and solvent for suspension for injection vials (Statens Serum Institut) (product)"/>
					</coding>
				</vaccineCode>
				<patient>
					<reference value="urn:uuid:7368c5fe-bbb4-4e9c-a585-234e06b84e82"/>
					<display value="SAXTON, Sarah Marie"/>
				</patient>
				<wasNotGiven value="false"/>
				<reported value="false"/>
				<performer>
					<reference value="urn:uuid:e9dbf8e8-5bdc-11e7-907b-a6006ad3dba0"/>
					<display value="JONES, Bob (Dr.)"/>
				</performer>
				<manufacturer>
					<reference value="urn:uuid:e9dc2412-5bdc-11e7-907b-a6006ad3dba0"/>
					<display value="Statens Serum Institut (SSI)"/>
				</manufacturer>
				<location>
					<reference value="urn:uuid:e9dbf730-5bdc-11e7-907b-a6006ad3dba0"/>
					<display value="Wood Town GP Practice"/>
				</location>
				<lotNumber value="114022A"/>
				<site>
					<coding>
						<extension url="https://fhir.hl7.org.uk/StructureDefinition/Extension-coding-sctdescid">
							<valueId value="2618974017"/>
						</extension>
						<system value="http://snomed.info/sct"/>
						<code value="123851003"/>
						<display value="Mouth"/>
					</coding>
				</site>
				<route>
					<coding>
						<extension url="https://fhir.hl7.org.uk/StructureDefinition/Extension-coding-sctdescid">
							<valueId value="44611018"/>
						</extension>
						<system value="http://snomed.info/sct"/>
						<code value="26643006"/>
						<display value="Oral route"/>
					</coding>
				</route>
				<doseQuantity>
					<value value="0.05"/>
					<system value="http://unitsofmeasure.org"/>
					<code value="ml"/>
				</doseQuantity>
				<vaccinationProtocol>
					<doseSequence value="1"/>
					<targetDisease>
						<coding>
							<system value="http://snomed.info/sct"/>
							<code value="56717001"/>
							<display value="Tuberculosis (disorder)"/>
						</coding>
					</targetDisease>
					<doseStatus>
						<coding>
							<system value="http://hl7.org/fhir/vaccination-protocol-dose-status"/>
							<code value="count"/>
							<display value="Counts"/>
						</coding>
					</doseStatus>
				</vaccinationProtocol>
			</Immunization>
		</resource>
	</entry>
	<entry>
		<fullUrl value="urn:uuid:e9dbffdc-5bdc-11e7-907b-a6006ad3dba0"/>
		<resource>
			<Encounter>
				<id value="e9dbffdc-5bdc-11e7-907b-a6006ad3dba0"/>
				<meta>
					<profile value="https://fhir.hl7.org.uk/StructureDefinition/CareConnect-DCH-Encounter-1"/>
				</meta>
				<identifier>
					<system value="https://tools.ietf.org/html/rfc4122"/>
					<value value="e9dbffdc-5bdc-11e7-907b-a6006ad3dba0"/>
				</identifier>
				<status value="finished"/>
				<patient>
					<reference value="urn:uuid:7368c5fe-bbb4-4e9c-a585-234e06b84e82"/>
					<display value="SAXTON, Sarah Marie"/>
				</patient>
				<participant>
					<individual>
						<reference value="urn:uuid:e9dbf8e8-5bdc-11e7-907b-a6006ad3dba0"/>
						<display value="JONES, Bob (Dr.)"/>
					</individual>
				</participant>
				<appointment>
					<reference value="urn:uuid:e9dc255c-5bdc-11e7-907b-a6006ad3dba0"/>
				</appointment>
				<period>
					<start value="2012-01-29T09:00:00"/>
				</period>
				<location>
					<location>
						<reference value="urn:uuid:e9dbf730-5bdc-11e7-907b-a6006ad3dba0"/>
						<display value="Wood Town GP Practice"/>
					</location>
				</location>
				<serviceProvider>
					<reference value="urn:uuid:e9dbf730-5bdc-11e7-907b-a6006ad3dba0"/>
					<display value="Wood Town GP Practice"/>
				</serviceProvider>
			</Encounter>
		</resource>
	</entry>
	<entry>
		<fullUrl value="urn:uuid:e9dc255c-5bdc-11e7-907b-a6006ad3dba0"/>
		<resource>
			<Appointment>
				<id value="e9dc255c-5bdc-11e7-907b-a6006ad3dba0"/>
				<meta>
					<profile value="https://fhir.hl7.org.uk/StructureDefinition/DCH-Appointment-1"/>
				</meta>
				<identifier>
					<system value="https://tools.ietf.org/html/rfc4122"/>
					<value value="e9dc255c-5bdc-11e7-907b-a6006ad3dba0"/>
				</identifier>
				<status value="fulfilled"/>
				<participant>
					<actor>
						<reference value="urn:uuid:7368c5fe-bbb4-4e9c-a585-234e06b84e82"/>
						<display value="SAXTON, Sarah Marie"/>
					</actor>
					<status value="accepted"/>
				</participant>
				<participant>
					<actor>
						<reference value="urn:uuid:e9dbf8e8-5bdc-11e7-907b-a6006ad3dba0"/>
						<display value="JONES, Bob (Dr.)"/>
					</actor>
					<status value="accepted"/>
				</participant>
			</Appointment>
		</resource>
	</entry>
	<entry>
		<fullUrl value="urn:uuid:e9dc1bc0-5bdc-11e7-907b-a6006ad3dba0"/>
		<resource>
			<Procedure>
				<id value="e9dc1bc0-5bdc-11e7-907b-a6006ad3dba0"/>
				<meta>
					<profile value="https://fhir.hl7.org.uk/StructureDefinition/CareConnect-DCH-Procedure-1"/>
				</meta>
				<identifier>
					<system value="https://tools.ietf.org/html/rfc4122"/>
					<value value="e9dc1bc0-5bdc-11e7-907b-a6006ad3dba0"/>
				</identifier>
				<subject>
					<reference value="urn:uuid:7368c5fe-bbb4-4e9c-a585-234e06b84e82"/>
					<display value="SAXTON, Sarah Marie"/>
				</subject>
				<status value="completed"/>
				<code>
					<coding>
						<system value="http://snomed.info/sct"/>
						<code value="42284007"/>
						<display value="Bacillus Calmette-Guerin vaccination (procedure)"/>
					</coding>
				</code>
				<performer>
					<actor>
						<reference value="urn:uuid:e9dbf8e8-5bdc-11e7-907b-a6006ad3dba0"/>
						<display value="JONES, Bob (Dr.)"/>
					</actor>
				</performer>
				<encounter>
					<reference value="urn:uuid:e9dbffdc-5bdc-11e7-907b-a6006ad3dba0"/>
				</encounter>
				<location>
					<reference value="urn:uuid:e9dbf730-5bdc-11e7-907b-a6006ad3dba0"/>
					<display value="Wood Town GP Practice"/>
				</location>
				<request>
					<reference value="urn:uuid:e9dc055e-5bdc-11e7-907b-a6006ad3dba0"/>
				</request>
			</Procedure>
		</resource>
	</entry>
	<entry>
		<fullUrl value="urn:uuid:e9dc055e-5bdc-11e7-907b-a6006ad3dba0"/>
		<resource>
			<ProcedureRequest>
				<id value="e9dc055e-5bdc-11e7-907b-a6006ad3dba0"/>
				<meta>
					<profile value="https://fhir.hl7.org.uk/StructureDefinition/DCH-ProcedureRequest-1"/>
				</meta>
				<extension url="https://fhir.nhs.uk/StructureDefinition/Extension-DCH-ConsentStatus-1">
					<valueCodeableConcept>
						<coding>
							<system value="https://fhir.nhs.uk/dch-consentstatus-1"/>
							<code value="Consented"/>
							<display value="Consented"/>
						</coding>
					</valueCodeableConcept>
				</extension>
				<identifier>
					<system value="https://tools.ietf.org/html/rfc4122"/>
					<value value="e9dc055e-5bdc-11e7-907b-a6006ad3dba0"/>
				</identifier>
				<subject>
					<reference value="urn:uuid:7368c5fe-bbb4-4e9c-a585-234e06b84e82"/>
					<display value="SAXTON, Sarah Marie"/>
				</subject>
				<code>
					<coding>
						<system value="http://snomed.info/sct"/>
						<code value="42284007"/>
						<display value="Bacillus Calmette-Guerin vaccination (procedure)"/>
					</coding>
				</code>
				<orderedOn value="2012-01-22"/>
				<orderer>
					<reference value="urn:uuid:e9dbf8e8-5bdc-11e7-907b-a6006ad3dba0"/>
					<display value="JONES, Bob (Dr.)"/>
				</orderer>
			</ProcedureRequest>
		</resource>
	</entry>
	<entry>
		<fullUrl value="urn:uuid:e9dc1cf6-5bdc-11e7-907b-a6006ad3dba0"/>
		<resource>
			<Observation>
				<id value="e9dc1cf6-5bdc-11e7-907b-a6006ad3dba0"/>
				<meta>
					<profile value="https://fhir.hl7.org.uk/StructureDefinition/CareConnect-DCH-FirstMilkFeed-Observation-1"/>
				</meta>
				<identifier>
					<system value="https://tools.ietf.org/html/rfc4122"/>
					<value value="e9dc1cf6-5bdc-11e7-907b-a6006ad3dba0"/>
				</identifier>
				<status value="final"/>
				<code>
					<coding>
						<system value="http://snomed.info/sct"/>
						<code value="405027001"/>
						<display value="Breastfeeding establishment: infant (observable entity)"/>
					</coding>
				</code>
				<subject>
					<reference value="urn:uuid:7368c5fe-bbb4-4e9c-a585-234e06b84e82"/>
					<display value="SAXTON, Sarah Marie"/>
				</subject>
				<encounter>
					<reference value="urn:uuid:e9dbffdc-5bdc-11e7-907b-a6006ad3dba0"/>
				</encounter>
				<performer>
					<reference value="urn:uuid:e9dbf8e8-5bdc-11e7-907b-a6006ad3dba0"/>
					<display value="JONES, Bob (Dr.)"/>
				</performer>
				<valueCodeableConcept>
					<coding>
						<system value="https://fhir.nhs.uk/ValueSet/DCH-FirstMilkFeed-1"/>
						<code value="1"/>
						<display value="Maternal Breast Milk"/>
					</coding>
				</valueCodeableConcept>
			</Observation>
		</resource>
	</entry>
	<entry>
		<fullUrl value="urn:uuid:e9dc2278-5bdc-11e7-907b-a6006ad3dba0"/>
		<resource>
			<Observation>
				<id value="e9dc2278-5bdc-11e7-907b-a6006ad3dba0"/>
				<meta>
					<profile value="https://fhir.hl7.org.uk/StructureDefinition/CareConnect-DCH-BreastfeedingStatus-Observation-1"/>
				</meta>
				<identifier>
					<system value="https://tools.ietf.org/html/rfc4122"/>
					<value value="e9dc2278-5bdc-11e7-907b-a6006ad3dba0"/>
				</identifier>
				<status value="final"/>
				<code>
					<coding>
						<system value="http://snomed.info/sct"/>
						<code value="413711008"/>
						<display value="Breastfeeding (infant) (observable entity)"/>
					</coding>
				</code>
				<subject>
					<reference value="urn:uuid:7368c5fe-bbb4-4e9c-a585-234e06b84e82"/>
					<display value="SAXTON, Sarah Marie"/>
				</subject>
				<encounter>
					<reference value="urn:uuid:e9dbffdc-5bdc-11e7-907b-a6006ad3dba0"/>
				</encounter>
				<performer>
					<reference value="urn:uuid:e9dbf8e8-5bdc-11e7-907b-a6006ad3dba0"/>
					<display value="JONES, Bob (Dr.)"/>
				</performer>
				<valueCodeableConcept>
					<coding>
						<system value="https://fhir.nhs.uk/ValueSet/DCH-BreastfeedingStatus-1"/>
						<code value="1"/>
						<display value="Exclusively breast milk feeding"/>
					</coding>
				</valueCodeableConcept>
			</Observation>
		</resource>
	</entry>
	<entry>
		<fullUrl value="urn:uuid:e9dbf8e8-5bdc-11e7-907b-a6006ad3dba0"/>
		<resource>
			<Practitioner>
				<id value="e9dbf8e8-5bdc-11e7-907b-a6006ad3dba0"/>
				<meta>
					<profile value="https://fhir.hl7.org.uk/StructureDefinition/CareConnect-Practitioner-1"/>
				</meta>
				<identifier>
					<system value="https://fhir.nhs.net/Id/sds-role-profile-id"/>
					<value value="PT2468"/>
				</identifier>
				<name>
					<family value="Jones"/>
					<given value="Bob"/>
					<prefix value="Dr."/>
				</name>
				<telecom>
					<system value="phone"/>
					<value value="0113-333-1222"/>
					<use value="work"/>
				</telecom>
				<address>
					<use value="work"/>
					<line value="13, Amber Street"/>
					<city value="Leeds"/>
					<postalCode value="LS20 1TV"/>
					<country value="GBR"/>
				</address>
				<gender value="male"/>
				<practitionerRole>
					<managingOrganization>
						<reference value="urn:uuid:e9dbf730-5bdc-11e7-907b-a6006ad3dba0"/>
						<display value="Wood Town GP Practice"/>
					</managingOrganization>
					<role>
						<coding>
							<system value="http://fhir.nhs.net/ValueSet/sds-job-role-name-1"/>
							<code value="R8000"/>
							<display value="General Medical Practitioner"/>
						</coding>
					</role>
				</practitionerRole>
			</Practitioner>
		</resource>
	</entry>
	<entry>
		<fullUrl value="urn:uuid:e9dbf730-5bdc-11e7-907b-a6006ad3dba0"/>
		<resource>
			<Organization>
				<id value="e9dbf730-5bdc-11e7-907b-a6006ad3dba0"/>
				<meta>
					<profile value="https://fhir.hl7.org.uk/StructureDefinition/CareConnect-Organization-1"/>
				</meta>
				<identifier>
					<system value="https://fhir.nhs.uk/Id/ods-organization-code"/>
					<value value="B86022"/>
				</identifier>
				<name value="Wood Town GP practice"/>
				<telecom>
					<system value="phone"/>
					<value value="0113-333-3579"/>
					<use value="work"/>
				</telecom>
				<address>
					<use value="work"/>
					<line value="13, Amber Street"/>
					<city value="Leeds"/>
					<postalCode value="LS20 1TV"/>
					<country value="GBR"/>
				</address>
			</Organization>
		</resource>
	</entry>
	<entry>
		<fullUrl value="urn:uuid:e9dc2412-5bdc-11e7-907b-a6006ad3dba0"/>
		<resource>
			<Organization>
				<id value="e9dc2412-5bdc-11e7-907b-a6006ad3dba0"/>
				<meta>
					<profile value="https://fhir.hl7.org.uk/StructureDefinition/CareConnect-Organization-1"/>
				</meta>
				<name value="Statens Serum Institut (SSI) "/>
			</Organization>
		</resource>
	</entry>
</Bundle>
