<?xml version="1.0" encoding="UTF-8"?>
<!--This example message is provided for illustrative purposes only. It has had no clinical validation. Where there are conflicts with the written message specification or schema, the specification or schema shall be considered to take precedence-->
<Bundle xmlns="http://hl7.org/fhir" xmlns:xsi="http://www.w3.org/2001/XMLSchema-instance" xsi:schemaLocation="http://hl7.org/fhir ../../Schemas/bundle.xsd">
	<id value="e9dbe6b4-5bdc-11e7-907b-a6006ad3dba0"/>
	<meta>
		<profile value="https://fhir.nhs.uk/StructureDefinition/DCH-Bundle-1"/>
	</meta>
	<type value="message"/>
	<entry>
		<fullUrl value="urn:uuid:e9dbeab0-5bdc-11e7-907b-a6006ad3dba0"/>
		<resource>
			<MessageHeader>
				<id value="e9dbeab0-5bdc-11e7-907b-a6006ad3dba0"/>
				<meta>
					<profile value="https://fhir.nhs.uk/StructureDefinition/DCH-MessageHeader-1"/>
				</meta>
				<extension url="https://fhir.nhs.uk/StructureDefinition/Extension-DCH-MessageEventType-1">
					<valueCodeableConcept>
						<coding>
							<system value="https://fhir.nhs.uk/DCH-MessageEventType-1"/>
							<code value="new"/>
							<display value="New event message"/>
						</coding>
					</valueCodeableConcept>
				</extension>
				<timestamp value="2012-03-08T09:00:00+00:00"/>
				<event>
					<system value="https://fhir.nhs.uk/dch-childhealtheventtype-1"/>
					<code value="Conditions"/>
					<display value="Conditions"/>
				</event>
				<source>
					<endpoint value="urn:uuid:1d67bb60-4f45-11e7-b114-b2f933d5fe66"/>
				</source>
				<responsible>
					<reference value="urn:uuid:5ccb6bb7-a7f1-46cc-a5d3-135320765553"/>
					<display value="Leeds Teaching Hospitals"/>
				</responsible>
				<data>
					<reference value="urn:uuid:e9dbecea-5bdc-11e7-907b-a6006ad3dba0"/>
				</data>
			</MessageHeader>
		</resource>
	</entry>
	<entry>
		<fullUrl value="urn:uuid:5ccb6bb7-a7f1-46cc-a5d3-135320765553"/>
		<resource>
			<Organization>
				<id value="5ccb6bb7-a7f1-46cc-a5d3-135320765553"/>
				<meta>
					<profile value="https://fhir.hl7.org.uk/StructureDefinition/CareConnect-Organization-1"/>
				</meta>
				<identifier>
					<system value="https://fhir.nhs.uk/Id/ods-organization-code"/>
					<value value="RR8"/>
				</identifier>
				<name value="Leeds Teaching Hospitals NHS Trust"/>
			</Organization>
		</resource>
	</entry>
	<entry>
		<fullUrl value="urn:uuid:7368c5fe-bbb4-4e9c-a585-234e06b84e82"/>
		<resource>
			<Patient>
				<id value="7368c5fe-bbb4-4e9c-a585-234e06b84e82"/>
				<meta>
					<profile value="https://fhir.hl7.org.uk/StructureDefinition/CareConnect-DCH-Patient-1"/>
				</meta>
				<identifier>
					<extension url="https://fhir.hl7.org.uk/StructureDefinition/Extension-CareConnect-NHSNumberVerificationStatus-1">
						<valueCodeableConcept>
							<coding>
								<system value="https://fhir.hl7.org.uk/CareConnect-NHSNumberVerificationStatus-1"/>
								<code value="01"/>
								<display value="Number present and verified"/>
							</coding>
						</valueCodeableConcept>
					</extension>
					<system value="https://fhir.nhs.uk/Id/nhs-number"/>
					<value value="5629874536"/>
				</identifier>
				<name>
					<use value="official"/>
					<family value="Saxton"/>
					<given value="Sarah"/>
					<given value="Marie"/>
				</name>
				<gender value="female"/>
				<birthDate value="2012-01-07">
					<extension url="http://hl7.org/fhir/StructureDefinition/patient-birthTime">
						<valueDateTime value="2012-01-07T20:12:00+00:00"/>
					</extension>
				</birthDate>
			</Patient>
		</resource>
	</entry>
	<entry>
		<fullUrl value="urn:uuid:e9dbecea-5bdc-11e7-907b-a6006ad3dba0"/>
		<resource>
			<QuestionnaireResponse>
				<id value="e9dbecea-5bdc-11e7-907b-a6006ad3dba0"/>
				<meta>
					<profile value="https://fhir.nhs.uk/StructureDefinition/DCH-QuestionnaireResponse-1"/>
				</meta>
				<identifier>
					<system value="https://tools.ietf.org/html/rfc4122"/>
					<value value="e9dbecea-5bdc-11e7-907b-a6006ad3dba0"/>
				</identifier>
				<status value="completed"/>
				<subject>
					<reference value="urn:uuid:7368c5fe-bbb4-4e9c-a585-234e06b84e82"/>
					<display value="SAXTON, Sarah Marie"/>
				</subject>
				<encounter>
					<reference value="urn:uuid:1d67bd36-4f45-11e7-b114-b2f933d5fe66"/>
				</encounter>
				<group>
					<title value="Conditions"/>
					<question>
						<text value="The date the Condition, Problem or Diagnosis as recognised by a Clinician was recorded"/>
						<answer>
							<valueDateTime value="2012-03-06T20:25:00+00:00"/>
						</answer>
						<answer>
							<valueReference>
								<reference value="urn:uuid:1d67bd36-4f45-11e7-b114-b2f933d5fe66"/>
							</valueReference>
						</answer>
					</question>
					<question>
						<text value="The Site Code of where the Condition, Problem or Diagnosis as recognised by a Clinician was recorded"/>
						<answer>
							<valueString value="RR830"/>
						</answer>
						<answer>
							<valueReference>
								<reference value="urn:uuid:00e72e70-0e37-48b5-b950-ca5ce8c35de7"/>
								<display value="Accident and Emergency Department, Leeds General Infirmary"/>
							</valueReference>
						</answer>
					</question>
					<question>
						<text value="Organisation recording the Condition, Problem or Diagnosis as recognised by a Clinician"/>
						<answer>
							<valueString value="RR8"/>
						</answer>
						<answer>
							<valueReference>
								<reference value="urn:uuid:5ccb6bb7-a7f1-46cc-a5d3-135320765553"/>
								<display value="Leeds Teaching Hospitals"/>
							</valueReference>
						</answer>
					</question>
					<question>
						<text value="Professional Group of the Professional recording the Condition, Problem or Diagnosis"/>
						<answer>
							<valueString value="R0050"/>
						</answer>
						<answer>
							<valueReference>
								<reference value="urn:uuid:1d67c1f0-4f45-11e7-b114-b2f933d5fe66"/>
							</valueReference>
						</answer>
					</question>
					<question>
						<text value="Code of the Professional recording the Condition, Problem or Diagnosis"/>
						<answer>
							<valueString value="PT1357"/>
						</answer>
						<answer>
							<valueReference>
								<reference value="urn:uuid:1d67c1f0-4f45-11e7-b114-b2f933d5fe66"/>
							</valueReference>
						</answer>
					</question>
					<question>
						<text value="The provisional Diagnosis of the child or young person"/>
						<answer>
							<valueCoding>
								<system value="http://snomed.info/sct"/>
								<code value="240302002"/>
								<display value="Erythroderma neonatorum (disorder)"/>
							</valueCoding>
						</answer>
						<answer>
							<valueReference>
								<reference value="urn:uuid:1d67c470-4f45-11e7-b114-b2f933d5fe66"/>
							</valueReference>
						</answer>
					</question>
					<question>
						<text value="Clinical status of the Condition, Problem or Diagnosis"/>
						<answer>
							<valueCoding>
								<system value="https://fhir.hl7.org.uk/CareConnect-ConditionClinicalStatus"/>
								<code value="active"/>
								<display value="Active"/>
							</valueCoding>
						</answer>
						<answer>
							<valueReference>
								<reference value="urn:uuid:1d67c470-4f45-11e7-b114-b2f933d5fe66"/>
							</valueReference>
						</answer>
					</question>
					<question>
						<text value="A category assigned to the condition"/>
						<answer>
							<valueCoding>
								<system value="https://fhir.hl7.org.uk/CareConnect-ConditionCategory-1"/>
								<code value="diagnosis"/>
								<display value="Diagnosis"/>
							</valueCoding>
						</answer>
						<answer>
							<valueReference>
								<reference value="urn:uuid:1d67c470-4f45-11e7-b114-b2f933d5fe66"/>
							</valueReference>
						</answer>
					</question>
					<question>
						<text value="Estimated or actual date or date-time the condition began, in the opinion of the clinician"/>
						<answer/>
						<answer>
							<valueReference>
								<reference value="urn:uuid:1d67c470-4f45-11e7-b114-b2f933d5fe66"/>
							</valueReference>
						</answer>
					</question>
				</group>
			</QuestionnaireResponse>
		</resource>
	</entry>
	<entry>
		<fullUrl value="urn:uuid:1d67bd36-4f45-11e7-b114-b2f933d5fe66"/>
		<resource>
			<Encounter>
				<id value="1d67bd36-4f45-11e7-b114-b2f933d5fe66"/>
				<meta>
					<profile value="https://fhir.hl7.org.uk/StructureDefinition/CareConnect-DCH-Encounter-1"/>
				</meta>
				<identifier>
					<system value="https://tools.ietf.org/html/rfc4122"/>
					<value value="1d67bd36-4f45-11e7-b114-b2f933d5fe66"/>
				</identifier>
				<status value="finished"/>
				<class value="emergency"/>
				<type>
					<coding>
						<system value="http://snomed.info/sct"/>
						<code value="4525004"/>
						<display value="Emergency department patient visit (procedure)"/>
					</coding>
				</type>
				<patient>
					<reference value="urn:uuid:7368c5fe-bbb4-4e9c-a585-234e06b84e82"/>
					<display value="SAXTON, Sarah Marie"/>
				</patient>
				<participant>
					<type>
						<coding>
							<system value="http://hl7.org/fhir/v3/ParticipationType"/>
							<code value="ATND"/>
							<display value="attender"/>
						</coding>
					</type>				
					<individual>
						<reference value="urn:uuid:1d67c1f0-4f45-11e7-b114-b2f933d5fe66"/>
						<display value="RILEY, Amber"/>
					</individual>
				</participant>
				<period>
					<start value="2012-03-06T20:25:00+00:00"/>
					<end value="2012-03-06T22:00:00+00:00"/>
				</period>
				<reason>
					<text value="Parent reported sudden rash to baby's skin developing from face and spreading to chest."/>
				</reason>
				<location>
					<location>
						<reference value="urn:uuid:00e72e70-0e37-48b5-b950-ca5ce8c35de7"/>
						<display value="Accident and Emergency Department, Leeds General Infirmary"/>
					</location>
				</location>
				<serviceProvider>
					<reference value="urn:uuid:5ccb6bb7-a7f1-46cc-a5d3-135320765553"/>
					<display value="Leeds Teaching Hospitals NHS Trust"/>
				</serviceProvider>
			</Encounter>
		</resource>
	</entry>
	<entry>
		<fullUrl value="urn:uuid:1d67c470-4f45-11e7-b114-b2f933d5fe66"/>
		<resource>
			<Condition>
				<id value="1d67c470-4f45-11e7-b114-b2f933d5fe66"/>
				<meta>
					<profile value="https://fhir.hl7.org.uk/StructureDefinition/CareConnect-DCH-Condition-1"/>
				</meta>
				<identifier>
					<system value="https://tools.ietf.org/html/rfc4122"/>
					<value value="1d67c470-4f45-11e7-b114-b2f933d5fe66"/>
				</identifier>
				<patient>
					<reference value="urn:uuid:7368c5fe-bbb4-4e9c-a585-234e06b84e82"/>
					<display value="SAXTON, Sarah Marie"/>
				</patient>
				<encounter>
					<reference value="urn:uuid:1d67bd36-4f45-11e7-b114-b2f933d5fe66"/>
				</encounter>
				<asserter>
					<reference value="urn:uuid:1d67c1f0-4f45-11e7-b114-b2f933d5fe66"/>
					<display value="RILEY, Amber"/>
				</asserter>
				<dateRecorded value="2012-03-06"/>
				<code>
					<coding>
						<system value="http://snomed.info/sct"/>
						<code value="240302002"/>
						<display value="Erythroderma neonatorum (disorder)"/>
					</coding>
				</code>
				<category>
					<coding>
						<system value="https://hl7.org.uk/fhir/CareConnect-ConditionCategory-1"/>
						<code value="diagnosis"/>
						<display value="Diagnosis"/>
					</coding>
				</category>
				<clinicalStatus value="active"/>
				<verificationStatus value="confirmed"/>
				<onsetDateTime value="2012-03-06T16:00:00+00:00"/>
			</Condition>
		</resource>
	</entry>
	<entry>
		<fullUrl value="urn:uuid:00e72e70-0e37-48b5-b950-ca5ce8c35de7"/>
		<resource>
			<Organization>
				<id value="00e72e70-0e37-48b5-b950-ca5ce8c35de7"/>
				<meta>
					<profile value="https://fhir.hl7.org.uk/StructureDefinition/CareConnect-Organization-1"/>
				</meta>
				<identifier>
					<system value="https://fhir.nhs.uk/Id/ods-site-code"/>
					<value value="RR830"/>
				</identifier>
				<name value="Accident and Emergency Department, Leeds General Infirmary"/>
			</Organization>
		</resource>
	</entry>
	<entry>
		<fullUrl value="urn:uuid:1d67c1f0-4f45-11e7-b114-b2f933d5fe66"/>
		<resource>
			<Practitioner>
				<id value="1d67c1f0-4f45-11e7-b114-b2f933d5fe66"/>
				<meta>
					<profile value="https://fhir.hl7.org.uk/StructureDefinition/CareConnect-DCH-Practitioner-1"/>
				</meta>
				<identifier>
					<system value="http://fhir.nhs.net/Id/sds-role-profile-id"/>
					<value value="PT1357"/>
				</identifier>
				<name>
					<family value="Riley"/>
					<given value="Amber"/>
				</name>
				<practitionerRole>
					<role>
						<coding>
							<system value="https://fhir.hl7.org.uk/CareConnect-SDSJobRoleName-1"/>
							<code value="R0050"/>
							<display value="Consultant"/>
						</coding>
					</role>
				</practitionerRole>
			</Practitioner>
		</resource>
	</entry>
</Bundle>
