<?xml version="1.0" encoding="UTF-8"?>
<!--This example message is provided for illustrative purposes only. It has had no clinical validation. Where there are conflicts with the written message specification or schema, the specification or schema shall be considered to take precedence-->
<Bundle xmlns="http://hl7.org/fhir" xmlns:xsi="http://www.w3.org/2001/XMLSchema-instance" xsi:schemaLocation="http://hl7.org/fhir ../../Schemas/bundle.xsd">
	<id value="e9dbfbae-5bdc-11e7-907b-a6006ad3dba0"/>
	<meta>
		<profile value="https://fhir.nhs.uk/StructureDefinition/DCH-Bundle-1"/>
	</meta>
	<type value="message"/>
	<entry>
		<fullUrl value="urn:uuid:e9dbfd2a-5bdc-11e7-907b-a6006ad3dba0"/>
		<resource>
			<MessageHeader>
				<id value="e9dbfd2a-5bdc-11e7-907b-a6006ad3dba0"/>
				<meta>
					<profile value="https://fhir.nhs.uk/StructureDefinition/DCH-Immunisation-MessageHeader-1"/>
				</meta>
				<extension url="https://fhir.nhs.uk/StructureDefinition/Extension-DCH-MessageEventType-1">
					<valueCodeableConcept>
						<coding>
							<system value="https://fhir.nhs.uk/DCH-MessageEventType-1"/>
							<code value="new"/>
							<display value="New event message"/>
						</coding>
					</valueCodeableConcept>
				</extension>
				<timestamp value="2012-01-31T09:00:00+00:00"/>
				<event>
					<system value="https://fhir.nhs.uk/DCH-ChildHealthEventType-1"/>
					<code value="Indicators : BCG"/>
					<display value="Indicators : BCG"/>
				</event>
				<source>
					<endpoint value="urn:nhs-uk:addressing:ods:RR8"/>
				</source>
				<responsible>
					<reference value="urn:uuid:5ccb6bb7-a7f1-46cc-a5d3-135320765553"/>
					<display value="Leeds Teaching Hospitals NHS Trust"/>
				</responsible>
				<data>
					<reference value="urn:uuid:a8ca9f14-72aa-11e7-8cf7-a6006ad3dba0"/>
				</data>
				<data>
					<reference value="urn:uuid:e9dbfea6-5bdc-11e7-907b-a6006ad3dba0"/>
				</data>
			</MessageHeader>
		</resource>
	</entry>
	<entry>
		<fullUrl value="urn:uuid:5ccb6bb7-a7f1-46cc-a5d3-135320765553"/>
		<resource>
			<Organization>
				<id value="5ccb6bb7-a7f1-46cc-a5d3-135320765553"/>
				<meta>
					<profile value="https://fhir.hl7.org.uk/StructureDefinition/CareConnect-DCH-Organization-1"/>
				</meta>
				<identifier>
					<system value="https://fhir.nhs.uk/Id/ods-organization-code"/>
					<value value="RR8"/>
				</identifier>
				<name value="Leeds Teaching Hospitals NHS Trust"/>
			</Organization>
		</resource>
	</entry>
	<entry>
		<fullUrl value="urn:uuid:7368c5fe-bbb4-4e9c-a585-234e06b84e82"/>
		<resource>
			<Patient>
				<id value="7368c5fe-bbb4-4e9c-a585-234e06b84e82"/>
				<meta>
					<profile value="https://fhir.hl7.org.uk/StructureDefinition/CareConnect-DCH-Patient-1"/>
				</meta>
				<identifier>
					<extension url="https://fhir.hl7.org.uk/StructureDefinition/Extension-CareConnect-NHSNumberVerificationStatus-1">
						<valueCodeableConcept>
							<coding>
								<system value="https://fhir.hl7.org.uk/CareConnect-NHSNumberVerificationStatus-1"/>
								<code value="01"/>
								<display value="Number present and verified"/>
							</coding>
						</valueCodeableConcept>
					</extension>
					<system value="https://fhir.nhs.uk/Id/nhs-number"/>
					<value value="5629874536"/>
				</identifier>
				<name>
					<use value="usual"/>
					<family value="Saxton"/>
					<given value="Sarah"/>
					<given value="Marie"/>
				</name>
				<gender value="female"/>
				<birthDate value="2012-01-07">
					<extension url="http://hl7.org/fhir/StructureDefinition/patient-birthTime">
						<valueDateTime value="2012-01-07T20:12:00+00:00"/>
					</extension>
				</birthDate>
			</Patient>
		</resource>
	</entry>
	<entry>
		<fullUrl value="urn:uuid:e9dbfea6-5bdc-11e7-907b-a6006ad3dba0"/>
		<resource>
			<QuestionnaireResponse>
				<id value="e9dbfea6-5bdc-11e7-907b-a6006ad3dba0"/>
				<meta>
					<profile value="https://fhir.nhs.uk/StructureDefinition/DCH-Immunisation-QuestionnaireResponse-1"/>
				</meta>
				<identifier>
					<system value="https://tools.ietf.org/html/rfc4122"/>
					<value value="e9dbfea6-5bdc-11e7-907b-a6006ad3dba0"/>
				</identifier>
				<status value="completed"/>
				<subject>
					<reference value="urn:uuid:7368c5fe-bbb4-4e9c-a585-234e06b84e82"/>
					<display value="SAXTON, Sarah Marie"/>
				</subject>
				<encounter>
					<reference value="urn:uuid:a8ca9f14-72aa-11e7-8cf7-a6006ad3dba0"/>
				</encounter>
				<group>
					<group>
						<title value="Indicator BCG"/>
						<question>
							<text value="An indication as to whether BCG vaccine is required"/>
							<answer>
								<valueBoolean value="true"/>
							</answer>
							<answer>
								<valueReference>
									<reference value="urn:uuid:1d67c470-4f45-11e7-b114-b2f933d5fe66"/>
								</valueReference>
							</answer>
						</question>
						<question>
							<text value="The reason why BCG vaccine is indicated"/>
							<answer>
								<valueString value="Parent/grandparent born in a country with a high TB rate"/>
							</answer>
							<answer>
								<valueReference>
									<reference value="urn:uuid:1d67c470-4f45-11e7-b114-b2f933d5fe66"/>
								</valueReference>
							</answer>
						</question>
						<question>
							<text value="The country of birth of parent or grandparent who was born in a country with a high TB rate"/>
							<answer>
								<valueString value="South Africa"/>
							</answer>
							<answer>
								<valueReference>
									<reference value="urn:uuid:1d67c470-4f45-11e7-b114-b2f933d5fe66"/>
								</valueReference>
							</answer>
						</question>
					</group>
				</group>
			</QuestionnaireResponse>
		</resource>
	</entry>
	<entry>
		<fullUrl value="urn:uuid:1d67c470-4f45-11e7-b114-b2f933d5fe66"/>
		<resource>
			<Condition>
				<id value="1d67c470-4f45-11e7-b114-b2f933d5fe66"/>
				<meta>
					<profile value="https://fhir.hl7.org.uk/StructureDefinition/CareConnect-DCH-Condition-1"/>
				</meta>
				<identifier>
					<system value="https://tools.ietf.org/html/rfc4122"/>
					<value value="1d67c470-4f45-11e7-b114-b2f933d5fe66"/>
				</identifier>
				<patient>
					<reference value="urn:uuid:7368c5fe-bbb4-4e9c-a585-234e06b84e82"/>
					<display value="SAXTON, Sarah Marie"/>
				</patient>
				<encounter>
					<reference value="urn:uuid:a8ca9f14-72aa-11e7-8cf7-a6006ad3dba0"/>
				</encounter>
				<asserter>
					<reference value="urn:uuid:e9dbf8e8-5bdc-11e7-907b-a6006ad3dba0"/>
					<display value="JONES, Bob (Dr.)"/>
				</asserter>
				<dateRecorded value="2012-01-22"/>
				<code>
					<coding>
						<system value="http://snomed.info/sct"/>
						<code value="429069001"/>
						<display value="Requires Bacillus Calmette-Guerin vaccination (finding)"/>
					</coding>
				</code>
				<category>
					<coding>
						<system value="https://hl7.org.uk/fhir/CareConnect-ConditionCategory-1"/>
						<code value="finding"/>
						<display value="Finding"/>
					</coding>
				</category>
				<verificationStatus value="confirmed"/>
				<notes value="Parent/grandparent born in a country with a high TB rate - South Africa"/>
			</Condition>
		</resource>
	</entry>
	<entry>
		<fullUrl value="urn:uuid:a8ca9f14-72aa-11e7-8cf7-a6006ad3dba0"/>
		<resource>
			<Encounter>
				<id value="a8ca9f14-72aa-11e7-8cf7-a6006ad3dba0"/>
				<meta>
					<profile value="https://fhir.hl7.org.uk/StructureDefinition/CareConnect-DCH-Encounter-1"/>
				</meta>
				<identifier>
					<system value="https://tools.ietf.org/html/rfc4122"/>
					<value value="a8ca9f14-72aa-11e7-8cf7-a6006ad3dba0"/>
				</identifier>
				<status value="finished"/>
				<type>
					<coding>
						<system value="https://fhir.nhs.uk/DCH-ChildHealthEventType-1"/>
						<code value="Indicators : BCG"/>
						<display value="Indicators : BCG"/>
					</coding>
				</type>
				<patient>
					<reference value="urn:uuid:7368c5fe-bbb4-4e9c-a585-234e06b84e82"/>
					<display value="SAXTON, Sarah Marie"/>
				</patient>
				<participant>
					<type>
						<coding>
							<system value="http://hl7.org/fhir/v3/ParticipationType"/>
							<code value="PPRF"/>
							<display value="primary performer"/>
						</coding>
					</type>
					<individual>
						<reference value="urn:uuid:e9dbf8e8-5bdc-11e7-907b-a6006ad3dba0"/>
						<display value="JONES, Bob (Dr.)"/>
					</individual>
				</participant>
				<period>
					<start value="2012-01-22T09:00:00"/>
				</period>
				<location>
					<location>
						<reference value="urn:uuid:e9dbf730-5bdc-11e7-907b-a6006ad3dba0"/>
						<display value="Wood Town GP Practice"/>
					</location>
				</location>
				<serviceProvider>
					<reference value="urn:uuid:5ccb6bb7-a7f1-46cc-a5d3-135320765553"/>
					<display value="Leeds Teaching Hospitals NHS Trust"/>
				</serviceProvider>
			</Encounter>
		</resource>
	</entry>
	<entry>
		<fullUrl value="urn:uuid:e9dbf8e8-5bdc-11e7-907b-a6006ad3dba0"/>
		<resource>
			<Practitioner>
				<id value="e9dbf8e8-5bdc-11e7-907b-a6006ad3dba0"/>
				<meta>
					<profile value="https://fhir.hl7.org.uk/StructureDefinition/CareConnect-DCH-Practitioner-1"/>
				</meta>
				<identifier>
					<system value="https://fhir.nhs.net/Id/sds-role-profile-id"/>
					<value value="PT2468"/>
				</identifier>
				<name>
					<family value="Jones"/>
					<given value="Bob"/>
					<prefix value="Dr."/>
				</name>
				<practitionerRole>
					<managingOrganization>
						<reference value="urn:uuid:5ccb6bb7-a7f1-46cc-a5d3-135320765553"/>
						<display value="Leeds Teaching Hospitals NHS Trust"/>
					</managingOrganization>
					<role>
						<coding>
							<system value="http://fhir.nhs.net/ValueSet/sds-job-role-name-1"/>
							<code value="R8000"/>
							<display value="General Medical Practitioner"/>
						</coding>
					</role>
				</practitionerRole>
			</Practitioner>
		</resource>
	</entry>
	<entry>
		<fullUrl value="urn:uuid:e9dbf730-5bdc-11e7-907b-a6006ad3dba0"/>
		<resource>
			<Location>
				<id value="e9dbf730-5bdc-11e7-907b-a6006ad3dba0"/>
				<meta>
					<profile value="https://fhir.hl7.org.uk/StructureDefinition/CareConnect-DCH-Location-1"/>
				</meta>
				<identifier>
					<system value="https://fhir.nhs.uk/Id/ods-site-code"/>
					<value value="B86022"/>
				</identifier>
				<name value="Wood Town GP practice"/>
			</Location>
		</resource>
	</entry>
</Bundle>
