{
  "resourceType": "Bundle",
  "id": "1d67b8fe-4f45-11e7-b114-b2f933d5fe66",
  "meta": {
    "profile": [
      "https://fhir.nhs.uk/StructureDefinition/DCH-Bundle-1"
    ]
  },
  "type": "message",
  "entry": [
    {
      "fullUrl": "urn:uuid:1d67bb60-4f45-11e7-b114-b2f933d5fe66",
      "resource": {
        "resourceType": "MessageHeader",
        "id": "1d67bb60-4f45-11e7-b114-b2f933d5fe66",
        "meta": {
          "profile": [
            "https://fhir.nhs.uk/StructureDefinition/DCH-MessageHeader-1"
          ]
        },
        "extension": [
          {
            "url": "https://fhir.nhs.uk/StructureDefinition/Extension-DCH-ChildHealthEventType-1",
            "valueCodeableConcept": {
              "coding": [
                {
                  "system": "https://fhir.nhs.uk/dch-childhealtheventtype-1",
                  "code": "Medical History",
                  "display": "Medical History"
                }
              ]
            }
          }
        ],
        "timestamp": "2012-03-08T09:00:00+00:00",
        "event": {
          "system": "https://fhir.nhs.uk/dch-messageeventtype-1",
          "code": "new",
          "display": "New event message"
        },
        "source": {
          "endpoint": "urn:uuid:1d67bb60-4f45-11e7-b114-b2f933d5fe66"
        },
        "responsible": {
          "reference": "urn:uuid:5ccb6bb7-a7f1-46cc-a5d3-135320765553",
          "display": "Leeds Teaching Hospitals"
        },
        "data": [
          {
            "reference": "urn:uuid:1d67bd36-4f45-11e7-b114-b2f933d5fe66"
          }
        ]
      }
    },
    {
      "fullUrl": "urn:uuid:5ccb6bb7-a7f1-46cc-a5d3-135320765553",
      "resource": {
        "resourceType": "Organization",
        "id": "5ccb6bb7-a7f1-46cc-a5d3-135320765553",
        "meta": {
          "profile": [
            "https://fhir.hl7.org.uk/StructureDefinition/CareConnect-Organization-1"
          ]
        },
        "identifier": [
          {
            "system": "https://fhir.nhs.uk/Id/ods-organization-code",
            "value": "RR8"
          }
        ],
        "name": "Leeds Teaching Hospitals NHS Trust"
      }
    },
    {
      "fullUrl": "urn:uuid:7368c5fe-bbb4-4e9c-a585-234e06b84e82",
      "resource": {
        "resourceType": "Patient",
        "id": "7368c5fe-bbb4-4e9c-a585-234e06b84e82",
        "meta": {
          "profile": [
            "https://fhir.hl7.org.uk/StructureDefinition/CareConnect-DCH-Patient-1"
          ]
        },
        "identifier": [
          {
            "extension": [
              {
                "url": "https://fhir.hl7.org.uk/StructureDefinition/Extension-CareConnect-NHSNumberVerificationStatus-1",
                "valueCodeableConcept": {
                  "coding": [
                    {
                      "system": "https://fhir.hl7.org.uk/CareConnect-NHSNumberVerificationStatus-1",
                      "code": "01",
                      "display": "Number present and verified"
                    }
                  ]
                }
              }
            ],
            "system": "https://fhir.nhs.uk/Id/nhs-number",
            "value": "5629874536"
          }
        ],
        "name": [
          {
            "use": "official",
            "family": [
              "Saxton"
            ],
            "given": [
              "Sarah",
              "Marie"
            ]
          }
        ],
        "gender": "female",
        "_birthDate": {
          "extension": [
            {
              "url": "http://hl7.org/fhir/StructureDefinition/patient-birthTime",
              "valueDateTime": "2012-01-07T20:12:00+00:00"
            }
          ]
        }
      }
    },
    {
      "fullUrl": "urn:uuid:1d67bd36-4f45-11e7-b114-b2f933d5fe66",
      "resource": {
        "resourceType": "Encounter",
        "id": "1d67bd36-4f45-11e7-b114-b2f933d5fe66",
        "meta": {
          "profile": [
            "https://fhir.hl7.org.uk/StructureDefinition/CareConnect-DCH-Encounter-1"
          ]
        },
        "identifier": [
          {
            "system": "https://tools.ietf.org/html/rfc4122",
            "value": "1d67be12-4f45-11e7-b114-b2f933d5fe66"
          }
        ],
        "status": "finished",
        "class": "emergency",
        "type": [
          {
            "coding": [
              {
                "system": "http://snomed.info/sct",
                "code": "4525004",
                "display": "Emergency department patient visit (procedure)"
              }
            ]
          },
          {
            "coding": [
              {
                "system": "https://fhir.nhs.uk/dch-childhealthencountertype-1",
                "code": "Accidents and Injuries",
                "display": "Accidents and Injuries"
              }
            ]
          }
        ],
        "patient": {
          "reference": "urn:uuid:7368c5fe-bbb4-4e9c-a585-234e06b84e82",
          "display": "SAXTON, Sarah Marie"
        },
        "participant": [
          {
            "individual": {
              "reference": "urn:uuid:1d67c1f0-4f45-11e7-b114-b2f933d5fe66",
              "display": "RILEY, Amber"
            }
          }
        ],
        "period": {
          "start": "2012-03-06T20:25:00+00:00",
          "end": "2012-03-06T22:00:00+00:00"
        },
        "reason": [
          {
            "text": "Parent reported sudden rash to baby's skin developing from face and spreading to chest."
          }
        ],
        "location": [
          {
            "location": {
              "reference": "urn:uuid:00e72e70-0e37-48b5-b950-ca5ce8c35de7",
              "display": "Accident and Emergency Department, Leeds General Infirmary"
            }
          }
        ],
        "serviceProvider": {
          "reference": "urn:uuid:5ccb6bb7-a7f1-46cc-a5d3-135320765553",
          "display": "Leeds Teaching Hospitals NHS Trust"
        }
      }
    },
    {
      "fullUrl": "urn:uuid:1d67c2d6-4f45-11e7-b114-b2f933d5fe66",
      "resource": {
        "resourceType": "QuestionnaireResponse",
        "id": "1d67c2d6-4f45-11e7-b114-b2f933d5fe66",
        "meta": {
          "profile": [
            "https://fhir.nhs.uk/StructureDefinition/DCH-QuestionnaireResponse-1"
          ]
        },
        "identifier": {
          "system": "https://tools.ietf.org/html/rfc4122",
          "value": "1d67c2d6-4f45-11e7-b114-b2f933d5fe66"
        },
        "status": "completed",
        "subject": {
          "reference": "urn:uuid:7368c5fe-bbb4-4e9c-a585-234e06b84e82",
          "display": "SAXTON, Sarah Marie"
        },
        "author": {
          "reference": "urn:uuid:1d67c1f0-4f45-11e7-b114-b2f933d5fe66",
          "display": "RILEY, Amber"
        },
        "encounter": {
          "reference": "urn:uuid:1d67bd36-4f45-11e7-b114-b2f933d5fe66"
        },
        "group": {
          "title": "Accidents and Injuries",
          "question": [
            {
              "text": "The date of the accident/injury.",
              "answer": [
                {
                  "valueDateTime": "2012-03-06T20:25:00+00:00"
                },
                {
                  "valueReference": {
                    "reference": "urn:uuid:1d67bd36-4f45-11e7-b114-b2f933d5fe66"
                  }
                }
              ]
            },
            {
              "text": "The Site Code where the Accident/Injury was recorded.",
              "answer": [
                {
                  "valueString": "RR830"
                },
                {
                  "valueReference": {
                    "reference": "urn:uuid:00e72e70-0e37-48b5-b950-ca5ce8c35de7",
                    "display": "Accident and Emergency Department, Leeds General Infirmary"
                  }
                }
              ]
            },
            {
              "text": "Organisation recording the Accident/Injury.",
              "answer": [
                {
                  "valueString": "RR8"
                },
                {
                  "valueReference": {
                    "reference": "urn:uuid:5ccb6bb7-a7f1-46cc-a5d3-135320765553",
                    "display": "Leeds Teaching Hospitals"
                  }
                }
              ]
            },
            {
              "text": "Professional Group of the Professional recording the Accident/Injury.",
              "answer": [
                {
                  "valueString": "R0050"
                },
                {
                  "valueReference": {
                    "reference": "urn:uuid:1d67c1f0-4f45-11e7-b114-b2f933d5fe66"
                  }
                }
              ]
            },
            {
              "text": "Code of the Professional recording the activity.",
              "answer": [
                {
                  "valueString": "PT1357"
                },
                {
                  "valueReference": {
                    "reference": "urn:uuid:1d67c1f0-4f45-11e7-b114-b2f933d5fe66"
                  }
                }
              ]
            },
            {
              "text": "Description of the Accident/Injury.",
              "answer": [
                {
                  "valueString": "Parent reported sudden rash to baby's skin developing from face and spreading to chest."
                },
                {
                  "valueReference": {
                    "reference": "urn:uuid:1d67bd36-4f45-11e7-b114-b2f933d5fe66"
                  }
                }
              ]
            },
            {
              "text": "The health problems and issues experienced by the patient resulting in a hospital admission.",
              "answer": [
                {
                  "valueCoding": {
                    "system": "http://snomed.info/sct",
                    "code": "271807003",
                    "display": "Eruption of skin (disorder)"
                  }
                },
                {
                  "valueReference": {
                    "reference": "urn:uuid:1d67c3a8-4f45-11e7-b114-b2f933d5fe66"
                  }
                }
              ]
            },
            {
              "text": "Name of person accompanying the child at Accident and Emergency Attendance.",
              "answer": [
                {
                  "valueString": "SAXTON, Jane"
                },
                {
                  "valueReference": {
                    "reference": "urn:uuid:1d67e0ea-4f45-11e7-b114-b2f933d5fe66"
                  }
                }
              ]
            },
            {
              "text": "Relationship of person accompanying the child at Accident and Emergency Attendance.",
              "answer": [
                {
                  "valueCoding": {
                    "system": "http://hl7.org/fhir/v3/RoleCode",
                    "code": "NMTH",
                    "display": "natural mother"
                  }
                },
                {
                  "valueReference": {
                    "reference": "urn:uuid:1d67e0ea-4f45-11e7-b114-b2f933d5fe66"
                  }
                }
              ]
            },
            {
              "text": "A code to identify how the Accident and Emergency Attendance ended.",
              "answer": [
                {
                  "valueCoding": {
                    "system": "https://fhir.nhs.uk/dch-disposalcode-1",
                    "code": "02",
                    "display": "Discharged - follow up treatment to be provided by GENERAL PRACTITIONER"
                  }
                },
                {
                  "valueReference": {
                    "reference": "urn:uuid:1d67bd36-4f45-11e7-b114-b2f933d5fe66"
                  }
                }
              ]
            },
            {
              "text": "Diagnosis made as a result of the Accident and Emergency Attendance.",
              "answer": [
                {
                  "valueCoding": {
                    "system": "http://snomed.info/sct",
                    "code": "240302002",
                    "display": "Erythroderma neonatorum (disorder)"
                  }
                },
                {
                  "valueReference": {
                    "reference": "urn:uuid:1d67c470-4f45-11e7-b114-b2f933d5fe66"
                  }
                }
              ]
            }
          ]
        }
      }
    },
    {
      "fullUrl": "urn:uuid:1d67c3a8-4f45-11e7-b114-b2f933d5fe66",
      "resource": {
        "resourceType": "Condition",
        "id": "1d67c3a8-4f45-11e7-b114-b2f933d5fe66",
        "meta": {
          "profile": [
            "https://fhir.hl7.org.uk/StructureDefinition/CareConnect-DCH-Condition-1"
          ]
        },
        "identifier": [
          {
            "system": "https://tools.ietf.org/html/rfc4122",
            "value": "1d67c3a8-4f45-11e7-b114-b2f933d5fe66"
          }
        ],
        "patient": {
          "reference": "urn:uuid:7368c5fe-bbb4-4e9c-a585-234e06b84e82",
          "display": "SAXTON, Sarah Marie"
        },
        "encounter": {
          "reference": "urn:uuid:urn:uuid:1d67bd36-4f45-11e7-b114-b2f933d5fe66"
        },
        "asserter": {
          "reference": "urn:uuid:1d67c1f0-4f45-11e7-b114-b2f933d5fe66",
          "display": "RILEY, Amber"
        },
        "dateRecorded": "2012-03-06",
        "code": {
          "coding": [
            {
              "system": "http://snomed.info/sct",
              "code": "271807003",
              "display": "Eruption of skin (disorder)"
            }
          ]
        },
        "category": {
          "coding": [
            {
              "system": "https://hl7.org.uk/fhir/CareConnect-ConditionCategory-1",
              "code": "complaint",
              "display": "Complaint"
            }
          ]
        },
        "verificationStatus": "confirmed"
      }
    },
    {
      "fullUrl": "urn:uuid:1d67c470-4f45-11e7-b114-b2f933d5fe66",
      "resource": {
        "resourceType": "Condition",
        "id": "1d67c470-4f45-11e7-b114-b2f933d5fe66",
        "meta": {
          "profile": [
            "https://fhir.hl7.org.uk/StructureDefinition/CareConnect-DCH-Condition-1"
          ]
        },
        "identifier": [
          {
            "system": "https://tools.ietf.org/html/rfc4122",
            "value": "1d67c470-4f45-11e7-b114-b2f933d5fe66"
          }
        ],
        "patient": {
          "reference": "urn:uuid:7368c5fe-bbb4-4e9c-a585-234e06b84e82",
          "display": "SAXTON, Sarah Marie"
        },
        "encounter": {
          "reference": "urn:uuid:urn:uuid:1d67bd36-4f45-11e7-b114-b2f933d5fe66"
        },
        "asserter": {
          "reference": "urn:uuid:1d67c1f0-4f45-11e7-b114-b2f933d5fe66",
          "display": "RILEY, Amber"
        },
        "dateRecorded": "2012-03-06",
        "code": {
          "coding": [
            {
              "system": "http://snomed.info/sct",
              "code": "240302002",
              "display": "Erythroderma neonatorum (disorder)"
            }
          ]
        },
        "category": {
          "coding": [
            {
              "system": "https://hl7.org.uk/fhir/CareConnect-ConditionCategory-1",
              "code": "diagnosis",
              "display": "Diagnosis"
            }
          ]
        },
        "verificationStatus": "confirmed"
      }
    },
    {
      "fullUrl": "urn:uuid:1d67e0ea-4f45-11e7-b114-b2f933d5fe66",
      "resource": {
        "resourceType": "RelatedPerson",
        "id": "1d67e0ea-4f45-11e7-b114-b2f933d5fe66",
        "meta": {
          "profile": [
            "https://fhir.nhs.uk/StructureDefinition/DCH-RelatedPerson-1"
          ]
        },
        "identifier": [
          {
            "system": "https://tools.ietf.org/html/rfc4122",
            "value": "1d67e022-4f45-11e7-b114-b2f933d5fe66"
          }
        ],
        "patient": {
          "reference": "urn:uuid:7368c5fe-bbb4-4e9c-a585-234e06b84e82",
          "display": "SAXTON, Sarah Marie"
        },
        "relationship": {
          "coding": [
            {
              "system": "http://hl7.org/fhir/v3/RoleCode",
              "code": "NMTH",
              "display": "natural mother"
            }
          ]
        },
        "name": {
          "use": "usual",
          "family": [
            "SAXTON"
          ],
          "given": [
            "Jane"
          ]
        }
      }
    },
    {
      "fullUrl": "urn:uuid:00e72e70-0e37-48b5-b950-ca5ce8c35de7",
      "resource": {
        "resourceType": "Organization",
        "id": "00e72e70-0e37-48b5-b950-ca5ce8c35de7",
        "meta": {
          "profile": [
            "https://fhir.hl7.org.uk/StructureDefinition/CareConnect-DCH-Organization-1"
          ]
        },
        "identifier": [
          {
            "system": "https://fhir.nhs.uk/Id/ods-site-code",
            "value": "RR830"
          }
        ],
        "name": "Accident and Emergency Department, Leeds General Infirmary"
      }
    },
    {
      "fullUrl": "urn:uuid:1d67c1f0-4f45-11e7-b114-b2f933d5fe66",
      "resource": {
        "resourceType": "Practitioner",
        "id": "1d67c1f0-4f45-11e7-b114-b2f933d5fe66",
        "meta": {
          "profile": [
            "https://fhir.hl7.org.uk/StructureDefinition/CareConnect-DCH-Practitioner-1"
          ]
        },
        "identifier": [
          {
            "system": "http://fhir.nhs.net/Id/sds-role-profile-id",
            "value": "PT1357"
          }
        ],
        "name": {
          "family": [
            "Riley"
          ],
          "given": [
            "Amber"
          ]
        },
        "practitionerRole": [
          {
            "role": {
              "coding": [
                {
                  "system": "https://fhir.hl7.org.uk/CareConnect-SDSJobRoleName-1",
                  "code": "R0050",
                  "display": "Consultant"
                }
              ]
            }
          }
        ]
      }
    }
  ]
}